Timestamp,Accel_X_G,Accel_Y_G,Accel_Z_G,Total_G
2026-02-23 00:40:32.074,0.0815,0.0098,1.0278,1.0311
2026-02-23 00:40:32.128,0.0830,0.0054,1.0249,1.0283
2026-02-23 00:40:32.182,0.0850,0.0068,1.0303,1.0338
2026-02-23 00:40:32.235,0.0830,0.0073,1.0269,1.0302
2026-02-23 00:40:32.292,0.0835,0.0044,1.0288,1.0322
2026-02-23 00:40:32.346,0.0820,0.0034,1.0273,1.0306
2026-02-23 00:40:32.400,0.0825,0.0068,1.0308,1.0341
2026-02-23 00:40:32.454,0.0845,0.0063,1.0342,1.0376
2026-02-23 00:40:32.507,0.0830,0.0020,1.0278,1.0312
2026-02-23 00:40:32.560,0.0830,0.0034,1.0288,1.0322
2026-02-23 00:40:32.613,0.0815,0.0059,1.0239,1.0272
2026-02-23 00:40:32.667,0.0796,0.0044,1.0225,1.0256
2026-02-23 00:40:32.720,0.0840,0.0063,1.0254,1.0288
2026-02-23 00:40:32.780,0.0786,0.0063,1.0288,1.0318
2026-02-23 00:40:32.833,0.0811,0.0073,1.0342,1.0374
2026-02-23 00:40:32.887,0.0845,0.0103,1.0269,1.0304
2026-02-23 00:40:32.940,0.0840,0.0088,1.0259,1.0293
2026-02-23 00:40:32.993,0.0811,0.0054,1.0312,1.0344
2026-02-23 00:40:33.046,0.0825,0.0068,1.0259,1.0292
2026-02-23 00:40:33.101,0.0820,0.0107,1.0273,1.0307
2026-02-23 00:40:33.154,0.0806,0.0034,1.0249,1.0281
2026-02-23 00:40:33.207,0.0806,0.0068,1.0361,1.0393
2026-02-23 00:40:33.260,0.0815,0.0063,1.0322,1.0355
2026-02-23 00:40:33.315,0.0806,0.0054,1.0254,1.0286
2026-02-23 00:40:33.368,0.0820,0.0117,1.0347,1.0380
2026-02-23 00:40:33.422,0.0840,0.0068,1.0234,1.0269
2026-02-23 00:40:33.476,0.0830,0.0073,1.0327,1.0361
2026-02-23 00:40:33.529,0.0815,0.0059,1.0312,1.0345
2026-02-23 00:40:33.583,0.0786,0.0068,1.0288,1.0318
2026-02-23 00:40:33.637,0.0835,0.0054,1.0308,1.0342
2026-02-23 00:40:33.692,0.0850,0.0044,1.0259,1.0294
2026-02-23 00:40:33.746,0.0825,0.0063,1.0269,1.0302
2026-02-23 00:40:33.799,0.0776,0.0078,1.0308,1.0337
2026-02-23 00:40:33.853,0.0801,0.0063,1.0308,1.0339
2026-02-23 00:40:33.908,0.0815,0.0049,1.0327,1.0359
2026-02-23 00:40:33.962,0.0791,0.0063,1.0244,1.0275
2026-02-23 00:40:34.017,0.0776,0.0093,1.0283,1.0313
2026-02-23 00:40:34.072,0.0791,0.0039,1.0259,1.0289
2026-02-23 00:40:34.126,0.0830,0.0044,1.0259,1.0292
2026-02-23 00:40:34.183,0.0811,0.0107,1.0327,1.0359
2026-02-23 00:40:34.237,0.0806,0.0054,1.0317,1.0349
2026-02-23 00:40:34.291,0.0820,0.0073,1.0264,1.0297
2026-02-23 00:40:34.345,0.0845,0.0049,1.0288,1.0323
2026-02-23 00:40:34.400,0.0815,0.0093,1.0225,1.0257
2026-02-23 00:40:34.456,0.0815,0.0054,1.0376,1.0408
2026-02-23 00:40:34.515,0.0815,0.0068,1.0386,1.0418
2026-02-23 00:40:34.568,0.0815,0.0073,1.0283,1.0316
2026-02-23 00:40:34.623,0.0840,0.0083,1.0264,1.0298
2026-02-23 00:40:34.676,0.0840,0.0024,1.0249,1.0283
2026-02-23 00:40:34.729,0.0820,0.0078,1.0264,1.0297
2026-02-23 00:40:34.783,0.0815,0.0088,1.0244,1.0277
2026-02-23 00:40:34.837,0.0757,0.0034,1.0273,1.0301
2026-02-23 00:40:34.890,0.0825,0.0049,1.0327,1.0360
2026-02-23 00:40:34.944,0.0845,0.0083,1.0361,1.0396
2026-02-23 00:40:34.998,0.0801,0.0073,1.0229,1.0261
2026-02-23 00:40:35.051,0.0820,0.0093,1.0332,1.0365
2026-02-23 00:40:35.105,0.0815,0.0054,1.0278,1.0311
2026-02-23 00:40:35.159,0.0796,0.0049,1.0273,1.0304
2026-02-23 00:40:35.212,0.0840,0.0049,1.0288,1.0322
2026-02-23 00:40:35.267,0.0830,0.0044,1.0278,1.0312
2026-02-23 00:40:35.320,0.0825,0.0034,1.0352,1.0384
2026-02-23 00:40:35.373,0.0869,0.0073,1.0332,1.0369
2026-02-23 00:40:35.427,0.0840,0.0068,1.0269,1.0303
2026-02-23 00:40:35.480,0.0811,-0.1206,1.0317,1.0419
2026-02-23 00:40:35.534,0.0820,0.0103,1.0269,1.0302
2026-02-23 00:40:35.588,0.0825,0.0083,1.0190,1.0224
2026-02-23 00:40:35.642,0.0825,0.0078,1.0278,1.0312
2026-02-23 00:40:35.695,0.0801,0.0083,1.0283,1.0315
2026-02-23 00:40:35.749,0.0815,0.0098,1.0381,1.0413
2026-02-23 00:40:35.803,0.0801,0.0088,1.0278,1.0310
2026-02-23 00:40:35.856,0.0825,0.0083,1.0283,1.0317
2026-02-23 00:40:35.911,0.0811,0.0044,1.0361,1.0393
2026-02-23 00:40:35.964,0.0776,0.0054,1.0312,1.0342
2026-02-23 00:40:36.017,0.0820,0.0088,1.0386,1.0418
2026-02-23 00:40:36.072,0.0830,0.0054,1.0347,1.0380
2026-02-23 00:40:36.125,0.0879,0.0049,1.0376,1.0413
2026-02-23 00:40:36.178,0.0815,0.0083,1.0288,1.0321
2026-02-23 00:40:36.233,0.0815,0.0024,1.0244,1.0277
2026-02-23 00:40:36.287,0.0815,0.0073,1.0288,1.0321
2026-02-23 00:40:36.340,0.0815,0.0063,1.0312,1.0345
2026-02-23 00:40:36.393,0.0830,0.0044,1.0308,1.0341
2026-02-23 00:40:36.446,0.0815,0.0059,1.0327,1.0359
2026-02-23 00:40:36.500,0.0806,0.0054,1.0322,1.0354
2026-02-23 00:40:36.554,0.0796,0.0063,1.0283,1.0314
2026-02-23 00:40:36.608,0.0801,0.0039,1.0317,1.0348
2026-02-23 00:40:36.661,0.0835,0.0039,1.0186,1.0220
2026-02-23 00:40:36.716,0.0815,0.0063,1.0288,1.0321
2026-02-23 00:40:36.769,0.0781,0.0059,1.0303,1.0332
2026-02-23 00:40:36.822,0.0825,0.0078,1.0312,1.0346
2026-02-23 00:40:36.878,0.0835,0.0039,1.0283,1.0317
2026-02-23 00:40:36.932,0.0786,0.0054,1.0308,1.0338
2026-02-23 00:40:36.985,0.0850,0.0068,1.0273,1.0309
2026-02-23 00:40:37.040,0.0811,0.0039,1.0317,1.0349
2026-02-23 00:40:37.093,0.0825,0.0063,1.0312,1.0346
2026-02-23 00:40:37.146,0.0825,0.0039,1.0273,1.0307
2026-02-23 00:40:37.202,0.0830,0.0083,1.0312,1.0346
2026-02-23 00:40:37.255,0.0825,0.0049,1.0337,1.0370
2026-02-23 00:40:37.308,0.0806,0.0020,1.0273,1.0305
2026-02-23 00:40:37.363,0.0850,0.0073,1.0283,1.0319
2026-02-23 00:40:37.417,0.0859,0.0054,1.0366,1.0402
2026-02-23 00:40:37.470,0.0845,0.0078,1.0293,1.0328
2026-02-23 00:40:37.524,0.0771,0.0029,1.0259,1.0288
2026-02-23 00:40:37.578,0.0811,0.0068,1.0288,1.0320
2026-02-23 00:40:37.631,0.0845,0.0078,1.0278,1.0313
2026-02-23 00:40:37.687,0.0825,0.0063,1.0347,1.0380
2026-02-23 00:40:37.740,0.0840,0.0078,1.0308,1.0342
2026-02-23 00:40:37.793,0.0786,0.0068,1.0342,1.0372
2026-02-23 00:40:37.848,0.0830,0.0068,1.0317,1.0351
2026-02-23 00:40:37.901,0.0796,0.0093,1.0293,1.0324
2026-02-23 00:40:37.954,0.0835,0.0059,1.0332,1.0366
2026-02-23 00:40:38.008,0.0781,0.0029,1.0254,1.0284
2026-02-23 00:40:38.061,0.0801,0.0044,1.0308,1.0339
2026-02-23 00:40:38.114,0.0771,0.0039,1.0244,1.0273
2026-02-23 00:40:38.168,0.0854,0.0093,1.0259,1.0295
2026-02-23 00:40:38.221,0.0835,0.0054,1.0278,1.0312
2026-02-23 00:40:38.274,0.0815,0.0029,1.0288,1.0320
2026-02-23 00:40:38.328,0.0830,0.0103,1.0269,1.0303
2026-02-23 00:40:38.382,0.0825,0.0029,1.0366,1.0399
2026-02-23 00:40:38.435,0.0840,0.0068,1.0312,1.0347
2026-02-23 00:40:38.488,0.0845,0.0059,1.0327,1.0362
2026-02-23 00:40:38.541,0.0825,0.0054,1.0303,1.0336
2026-02-23 00:40:38.594,0.0781,0.0112,1.0298,1.0328
2026-02-23 00:40:38.648,0.0811,0.0059,1.0264,1.0296
2026-02-23 00:40:38.701,0.0898,0.0088,1.0278,1.0318
2026-02-23 00:40:38.754,0.0811,0.0083,1.0200,1.0233
2026-02-23 00:40:38.807,0.0806,0.0078,1.0322,1.0354
2026-02-23 00:40:38.861,0.0791,0.0068,1.0327,1.0358
2026-02-23 00:40:38.914,0.0845,0.0029,1.0303,1.0337
2026-02-23 00:40:38.967,0.0850,0.0049,1.0312,1.0348
2026-02-23 00:40:39.020,0.0850,0.0078,1.0298,1.0333
2026-02-23 00:40:39.074,0.0825,0.0083,1.0225,1.0258
2026-02-23 00:40:39.127,0.0825,0.0073,1.0273,1.0307
2026-02-23 00:40:39.180,0.0801,0.0107,1.0244,1.0276
2026-02-23 00:40:39.233,0.0830,0.0059,1.0342,1.0375
2026-02-23 00:40:39.287,0.0820,0.0078,1.0273,1.0306
2026-02-23 00:40:39.340,0.0864,0.0073,1.0303,1.0339
2026-02-23 00:40:39.394,0.0820,0.0049,1.0288,1.0321
2026-02-23 00:40:39.449,0.0811,0.0083,1.0327,1.0359
2026-02-23 00:40:39.503,0.0771,0.0073,1.0303,1.0332
2026-02-23 00:40:39.556,0.0835,0.0049,1.0298,1.0332
2026-02-23 00:40:39.610,0.0796,0.0059,1.0293,1.0324
2026-02-23 00:40:39.663,0.0820,0.0063,1.0332,1.0365
2026-02-23 00:40:39.716,0.0820,0.0049,1.0317,1.0350
2026-02-23 00:40:39.773,0.0874,0.0059,1.0278,1.0316
2026-02-23 00:40:39.826,0.0781,0.0024,1.0278,1.0308
2026-02-23 00:40:39.879,0.0908,0.0078,1.0352,1.0392
2026-02-23 00:40:39.933,0.0830,0.0059,1.0308,1.0341
2026-02-23 00:40:39.986,0.0801,0.0044,1.0259,1.0290
2026-02-23 00:40:40.039,0.0840,0.0059,1.0381,1.0415
2026-02-23 00:40:40.094,0.0840,0.0049,1.0303,1.0337
2026-02-23 00:40:40.147,0.0825,0.0078,1.0269,1.0302
2026-02-23 00:40:40.200,0.0845,0.0068,1.0259,1.0294
2026-02-23 00:40:40.255,0.0811,0.0063,1.0337,1.0369
2026-02-23 00:40:40.309,0.0820,0.0122,1.0293,1.0326
2026-02-23 00:40:40.362,0.0864,0.0068,1.0366,1.0402
2026-02-23 00:40:40.416,0.0801,0.0054,1.0288,1.0319
2026-02-23 00:40:40.470,0.0830,0.0073,1.0293,1.0327
2026-02-23 00:40:40.523,0.0845,0.0044,1.0337,1.0371
2026-02-23 00:40:40.577,0.0835,0.0054,1.0298,1.0332
2026-02-23 00:40:40.630,0.0781,0.0083,1.0361,1.0391
2026-02-23 00:40:40.683,0.0835,0.0063,1.0356,1.0390
2026-02-23 00:40:40.736,0.0811,0.0088,1.0312,1.0345
2026-02-23 00:40:40.790,0.0845,0.0122,1.0273,1.0309
2026-02-23 00:40:40.843,0.0889,0.0078,1.0317,1.0356
2026-02-23 00:40:40.896,0.0825,0.0044,1.0332,1.0365
2026-02-23 00:40:40.949,0.0781,0.0054,1.0244,1.0274
2026-02-23 00:40:41.002,0.0859,0.0063,1.0293,1.0329
2026-02-23 00:40:41.057,0.0806,0.0063,1.0361,1.0393
2026-02-23 00:40:41.110,0.0806,0.0034,1.0322,1.0354
2026-02-23 00:40:41.163,0.0830,0.0044,1.0146,1.0180
2026-02-23 00:40:41.216,0.0854,0.0020,1.0273,1.0309
2026-02-23 00:40:41.270,0.0801,0.0068,1.0288,1.0319
2026-02-23 00:40:41.323,0.0850,0.0098,1.0283,1.0319
2026-02-23 00:40:41.376,0.0845,0.0059,1.0244,1.0279
2026-02-23 00:40:41.429,0.0781,0.0029,1.0210,1.0240
2026-02-23 00:40:41.482,0.0815,0.0044,1.0356,1.0389
2026-02-23 00:40:41.537,0.0820,0.0063,1.0366,1.0399
2026-02-23 00:40:41.590,0.0859,0.0059,1.0283,1.0319
2026-02-23 00:40:41.643,0.0835,0.0073,1.0308,1.0342
2026-02-23 00:40:41.697,0.0815,0.0073,1.0229,1.0262
2026-02-23 00:40:41.750,0.0806,0.0054,1.0210,1.0242
2026-02-23 00:40:41.803,0.0820,0.0049,1.0293,1.0326
2026-02-23 00:40:41.857,0.0806,0.0059,1.0239,1.0271
2026-02-23 00:40:41.911,0.0820,0.0083,1.0332,1.0365
2026-02-23 00:40:41.964,0.0771,0.0049,1.0327,1.0356
2026-02-23 00:40:42.017,0.0830,0.0063,1.0254,1.0288
2026-02-23 00:40:42.070,0.0791,0.0005,1.0337,1.0367
2026-02-23 00:40:42.123,0.0850,0.0103,1.0322,1.0358
2026-02-23 00:40:42.176,0.0767,0.0059,1.0308,1.0336
2026-02-23 00:40:42.229,0.0830,0.0083,1.0239,1.0273
2026-02-23 00:40:42.282,0.0806,0.0103,1.0298,1.0330
2026-02-23 00:40:42.335,0.0811,0.0083,1.0327,1.0359
2026-02-23 00:40:42.388,0.0825,0.0073,1.0249,1.0282
2026-02-23 00:40:42.441,0.0781,0.0059,1.0229,1.0259
2026-02-23 00:40:42.494,0.0815,0.0068,1.0288,1.0321
2026-02-23 00:40:42.547,0.0776,0.0049,1.0337,1.0366
2026-02-23 00:40:42.600,0.0806,0.0049,1.0312,1.0344
2026-02-23 00:40:42.653,0.0806,0.0073,1.0293,1.0325
2026-02-23 00:40:42.706,0.0811,0.0029,1.0327,1.0359
2026-02-23 00:40:42.760,0.0864,0.0107,1.0293,1.0330
2026-02-23 00:40:42.813,0.0796,0.0054,1.0371,1.0402
2026-02-23 00:40:42.866,0.0830,0.0088,1.0234,1.0268
2026-02-23 00:40:42.919,0.0791,0.0083,1.0264,1.0294
2026-02-23 00:40:42.972,0.0874,0.0049,1.0308,1.0345
2026-02-23 00:40:43.025,0.0835,0.0078,1.0283,1.0317
2026-02-23 00:40:43.078,0.0830,0.0068,1.0278,1.0312
2026-02-23 00:40:43.131,0.0840,0.0103,1.0249,1.0284
2026-02-23 00:40:43.184,0.0820,0.0068,1.0361,1.0394
2026-02-23 00:40:43.237,0.0864,0.0063,1.0332,1.0368
2026-02-23 00:40:43.290,0.0820,0.0059,1.0234,1.0267
2026-02-23 00:40:43.343,0.0830,0.0059,1.0356,1.0390
2026-02-23 00:40:43.396,0.0820,0.0063,1.0205,1.0238
2026-02-23 00:40:43.449,0.0835,0.0034,1.0234,1.0268
2026-02-23 00:40:43.502,0.0859,0.0020,1.0317,1.0353
2026-02-23 00:40:43.555,0.0806,0.0049,1.0308,1.0339
2026-02-23 00:40:43.608,0.0796,0.0088,1.0322,1.0353
2026-02-23 00:40:43.661,0.0830,0.0024,1.0332,1.0365
2026-02-23 00:40:43.714,0.0835,0.0103,1.0293,1.0327
2026-02-23 00:40:43.767,0.0850,0.0098,1.0322,1.0358
2026-02-23 00:40:43.821,0.0811,0.0049,1.0317,1.0349
2026-02-23 00:40:43.874,0.0815,0.0088,1.0205,1.0238
2026-02-23 00:40:43.927,0.0825,0.0039,1.0161,1.0195
2026-02-23 00:40:43.980,0.0791,0.0054,1.0342,1.0372
2026-02-23 00:40:44.033,0.0830,0.0039,1.0303,1.0336
2026-02-23 00:40:44.086,0.0811,0.0024,1.0278,1.0310
2026-02-23 00:40:44.139,0.0845,0.0029,1.0278,1.0313
2026-02-23 00:40:44.192,0.0820,0.0054,1.0298,1.0331
2026-02-23 00:40:44.245,0.0811,0.0020,1.0283,1.0315
2026-02-23 00:40:44.298,0.0820,0.0054,1.0303,1.0335
2026-02-23 00:40:44.351,0.0801,0.0073,1.0254,1.0285
2026-02-23 00:40:44.404,0.0850,0.0088,1.0308,1.0343
2026-02-23 00:40:44.458,0.0840,0.0059,1.0303,1.0337
2026-02-23 00:40:44.511,0.0811,0.0020,1.0288,1.0320
2026-02-23 00:40:44.564,0.0898,0.0073,1.0317,1.0357
2026-02-23 00:40:44.617,0.0825,0.0112,1.0249,1.0283
2026-02-23 00:40:44.671,0.0830,0.0103,1.0322,1.0356
2026-02-23 00:40:44.724,0.0845,0.0132,1.0293,1.0328
2026-02-23 00:40:44.777,0.0845,0.0088,1.0264,1.0299
2026-02-23 00:40:44.830,0.0806,0.0068,1.0298,1.0330
2026-02-23 00:40:44.883,0.0850,0.0039,1.0293,1.0328
2026-02-23 00:40:44.937,0.0806,0.0054,1.0283,1.0315
2026-02-23 00:40:44.990,0.0830,0.0073,1.0342,1.0375
2026-02-23 00:40:45.043,0.0791,0.0039,1.0293,1.0323
2026-02-23 00:40:45.096,0.0840,0.0098,1.0234,1.0269
2026-02-23 00:40:45.149,0.0801,0.0103,1.0249,1.0281
2026-02-23 00:40:45.203,0.0791,0.0093,1.0337,1.0368
2026-02-23 00:40:45.258,0.0815,0.0034,1.0269,1.0301
2026-02-23 00:40:45.311,0.0815,0.0078,1.0220,1.0253
2026-02-23 00:40:45.364,0.0825,0.0063,1.0273,1.0307
2026-02-23 00:40:45.418,0.0811,0.0059,1.0259,1.0291
2026-02-23 00:40:45.471,0.0815,0.0024,1.0293,1.0325
2026-02-23 00:40:45.524,0.0845,0.0107,1.0361,1.0396
2026-02-23 00:40:45.577,0.0864,0.0049,1.0244,1.0281
2026-02-23 00:40:45.630,0.0825,0.0078,1.0234,1.0268
2026-02-23 00:40:45.683,0.0801,0.0063,1.0249,1.0280
2026-02-23 00:40:45.736,0.0771,0.0078,1.0337,1.0366
2026-02-23 00:40:45.789,0.0752,0.0039,1.0259,1.0286
2026-02-23 00:40:45.843,0.0825,0.0103,1.0244,1.0278
2026-02-23 00:40:45.896,0.0776,0.0029,1.0273,1.0303
2026-02-23 00:40:45.949,0.0786,0.0093,1.0303,1.0333
2026-02-23 00:40:46.002,0.0801,0.0063,1.0332,1.0363
2026-02-23 00:40:46.055,0.0825,0.0068,1.0293,1.0326
2026-02-23 00:40:46.108,0.0825,0.0107,1.0308,1.0341
2026-02-23 00:40:46.161,0.0811,0.0034,1.0342,1.0374
2026-02-23 00:40:46.214,0.0806,0.0083,1.0303,1.0335
2026-02-23 00:40:46.268,0.0771,0.0034,1.0259,1.0288
2026-02-23 00:40:46.321,0.0825,0.0024,1.0278,1.0311
2026-02-23 00:40:46.374,0.0854,0.0054,1.0327,1.0363
2026-02-23 00:40:46.427,0.0801,0.0068,1.0342,1.0373
2026-02-23 00:40:46.480,0.0854,0.0005,1.0254,1.0289
2026-02-23 00:40:46.533,0.0801,0.0059,1.0298,1.0329
2026-02-23 00:40:46.586,0.0835,0.0029,1.0234,1.0268
2026-02-23 00:40:46.639,0.0850,0.0029,1.0264,1.0299
2026-02-23 00:40:46.692,0.0820,0.0088,1.0269,1.0302
2026-02-23 00:40:46.745,0.0815,0.0083,1.0273,1.0306
2026-02-23 00:40:46.798,0.0820,0.0029,1.0371,1.0404
2026-02-23 00:40:46.851,0.0825,0.0063,1.0229,1.0263
2026-02-23 00:40:46.904,0.0850,0.0054,1.0337,1.0372
2026-02-23 00:40:46.957,0.0845,0.0054,1.0327,1.0362
2026-02-23 00:40:47.010,0.0811,0.0049,1.0278,1.0310
2026-02-23 00:40:47.064,0.0835,0.0044,1.0254,1.0288
2026-02-23 00:40:47.117,0.0864,0.0029,1.0298,1.0334
2026-02-23 00:40:47.170,0.0815,0.0044,1.0327,1.0359
2026-02-23 00:40:47.223,0.0786,0.0049,1.0312,1.0343
2026-02-23 00:40:47.276,0.0801,0.0073,1.0337,1.0368
2026-02-23 00:40:47.329,0.0811,0.0068,1.0288,1.0320
2026-02-23 00:40:47.382,0.0825,0.0024,1.0283,1.0316
2026-02-23 00:40:47.435,0.0840,0.0078,1.0225,1.0259
2026-02-23 00:40:47.488,0.0806,0.0029,1.0264,1.0295
2026-02-23 00:40:47.541,0.0859,0.0054,1.0249,1.0285
2026-02-23 00:40:47.594,0.0815,0.0098,1.0283,1.0316
2026-02-23 00:40:47.647,0.0830,0.0093,1.0264,1.0298
2026-02-23 00:40:47.700,0.0806,0.0068,1.0264,1.0295
2026-02-23 00:40:47.753,0.0786,0.0088,1.0317,1.0348
2026-02-23 00:40:47.806,0.0879,0.0063,1.0259,1.0297
2026-02-23 00:40:47.859,0.0791,0.0063,1.0288,1.0319
2026-02-23 00:40:47.912,0.0820,0.0093,1.0269,1.0302
2026-02-23 00:40:47.966,0.0815,0.0088,1.0391,1.0423
2026-02-23 00:40:48.019,0.0811,0.0073,1.0312,1.0345
2026-02-23 00:40:48.072,0.0830,0.0054,1.0278,1.0312
2026-02-23 00:40:48.125,0.0815,0.0054,1.0210,1.0243
2026-02-23 00:40:48.178,0.0791,0.0039,1.0288,1.0319
2026-02-23 00:40:48.231,0.0796,0.0078,1.0234,1.0266
2026-02-23 00:40:48.284,0.0869,0.0044,1.0273,1.0310
2026-02-23 00:40:48.337,0.0820,0.0088,1.0278,1.0311
2026-02-23 00:40:48.390,0.0732,0.0044,1.0376,1.0402
2026-02-23 00:40:48.443,0.0811,0.0083,1.0312,1.0345
2026-02-23 00:40:48.496,0.0815,0.0068,1.0332,1.0364
2026-02-23 00:40:48.549,0.0854,0.0039,1.0283,1.0319
2026-02-23 00:40:48.602,0.0864,0.0044,1.0249,1.0285
2026-02-23 00:40:48.656,0.0859,0.0054,1.0308,1.0344
2026-02-23 00:40:48.709,0.0806,0.0078,1.0239,1.0271
2026-02-23 00:40:48.762,0.0854,0.0039,1.0283,1.0319
2026-02-23 00:40:48.815,0.0815,0.0054,1.0264,1.0296
2026-02-23 00:40:48.868,0.0840,0.0054,1.0327,1.0361
2026-02-23 00:40:48.921,0.0811,0.0068,1.0303,1.0335
2026-02-23 00:40:48.974,0.0840,0.0078,1.0220,1.0254
2026-02-23 00:40:49.028,0.0859,0.0005,1.0317,1.0353
2026-02-23 00:40:49.081,0.0820,0.0039,1.0327,1.0360
2026-02-23 00:40:49.135,0.0786,0.0020,1.0273,1.0303
2026-02-23 00:40:49.188,0.0815,0.0063,1.0298,1.0330
2026-02-23 00:40:49.241,0.0815,0.0034,1.0244,1.0277
2026-02-23 00:40:49.294,0.0825,0.0088,1.0244,1.0278
2026-02-23 00:40:49.347,0.0781,0.0054,1.0308,1.0337
2026-02-23 00:40:49.401,0.0781,0.0063,1.0220,1.0250
2026-02-23 00:40:49.454,0.0820,0.0049,1.0312,1.0345
2026-02-23 00:40:49.507,0.0757,0.0010,1.0322,1.0350
2026-02-23 00:40:49.560,0.0864,0.0088,1.0205,1.0242
2026-02-23 00:40:49.613,0.0835,0.0093,1.0254,1.0288
2026-02-23 00:40:49.666,0.0864,0.0044,1.0293,1.0329
2026-02-23 00:40:49.719,0.0825,0.0078,1.0337,1.0370
2026-02-23 00:40:49.772,0.0781,0.0078,1.0317,1.0347
2026-02-23 00:40:49.825,0.0850,0.0088,1.0269,1.0304
2026-02-23 00:40:49.878,0.0835,0.0068,1.0254,1.0288
2026-02-23 00:40:49.931,0.0820,0.0015,1.0293,1.0326
2026-02-23 00:40:49.984,0.0806,0.0078,1.0269,1.0300
2026-02-23 00:40:50.037,0.0801,0.0029,1.0327,1.0358
2026-02-23 00:40:50.091,0.0806,0.0049,1.0283,1.0315
2026-02-23 00:40:50.144,0.0840,0.0049,1.0322,1.0356
2026-02-23 00:40:50.197,0.0811,0.0063,1.0278,1.0310
2026-02-23 00:40:50.250,0.0854,0.0044,1.0259,1.0294
2026-02-23 00:40:50.303,0.0854,0.0020,1.0298,1.0333
2026-02-23 00:40:50.356,0.0801,0.0063,1.0298,1.0329
2026-02-23 00:40:50.409,0.0830,0.0039,1.0273,1.0307
2026-02-23 00:40:50.463,0.0806,0.0059,1.0264,1.0295
2026-02-23 00:40:50.516,0.0815,0.0083,1.0264,1.0296
2026-02-23 00:40:50.569,0.0811,0.0068,1.0229,1.0262
2026-02-23 00:40:50.622,0.0786,0.0054,1.0288,1.0318
2026-02-23 00:40:50.676,0.0693,0.0088,1.0273,1.0297
2026-02-23 00:40:50.729,0.0986,0.0215,1.0259,1.0308
2026-02-23 00:40:50.782,0.0854,0.0078,1.0322,1.0358
2026-02-23 00:40:50.835,0.0542,-0.0137,1.0327,1.0342
2026-02-23 00:40:50.889,0.0781,0.0083,1.0337,1.0367
2026-02-23 00:40:50.942,0.0728,0.0107,1.0195,1.0222
2026-02-23 00:40:50.996,0.1011,0.0010,1.0298,1.0347
2026-02-23 00:40:51.049,0.0791,-0.1250,1.0190,1.0297
2026-02-23 00:40:51.105,0.0898,-0.0254,1.0273,1.0316
2026-02-23 00:40:51.158,0.0723,0.0127,1.0234,1.0261
2026-02-23 00:40:51.211,0.0771,0.0024,1.0225,1.0254
2026-02-23 00:40:51.266,0.0806,0.0010,1.0298,1.0329
2026-02-23 00:40:51.319,0.0815,0.0063,1.0371,1.0403
2026-02-23 00:40:51.372,0.0869,0.0024,1.0303,1.0339
2026-02-23 00:40:51.425,0.0786,0.0024,1.0273,1.0304
2026-02-23 00:40:51.483,0.0776,0.0068,1.0283,1.0313
2026-02-23 00:40:51.536,0.0840,0.0059,1.0308,1.0342
2026-02-23 00:40:51.589,0.0796,0.0044,1.0332,1.0363
2026-02-23 00:40:51.642,0.0859,0.0054,1.0200,1.0236
2026-02-23 00:40:51.695,0.0811,0.0103,1.0264,1.0296
2026-02-23 00:40:51.748,0.0840,0.0020,1.0312,1.0347
2026-02-23 00:40:51.801,0.0801,0.0044,1.0249,1.0280
2026-02-23 00:40:51.855,0.0674,0.0068,1.0308,1.0330
2026-02-23 00:40:51.908,0.0811,0.0059,1.0288,1.0320
2026-02-23 00:40:51.961,0.0830,0.0068,1.0278,1.0312
2026-02-23 00:40:52.014,0.0825,0.0068,1.0352,1.0385
2026-02-23 00:40:52.067,0.0796,0.0054,1.0327,1.0358
2026-02-23 00:40:52.120,0.0889,0.0068,1.0332,1.0370
2026-02-23 00:40:52.173,0.0840,0.0039,1.0391,1.0425
2026-02-23 00:40:52.226,0.0825,0.0059,1.0249,1.0282
2026-02-23 00:40:52.280,0.0825,0.0044,1.0249,1.0282
2026-02-23 00:40:52.333,0.0791,0.0049,1.0254,1.0284
2026-02-23 00:40:52.386,0.0835,0.0063,1.0273,1.0308
2026-02-23 00:40:52.439,0.0801,0.0073,1.0308,1.0339
2026-02-23 00:40:52.492,0.0806,0.0054,1.0239,1.0271
2026-02-23 00:40:52.546,0.0757,0.0049,1.0273,1.0301
2026-02-23 00:40:52.599,0.0786,0.0103,1.0303,1.0333
2026-02-23 00:40:52.652,0.0762,0.0059,1.0269,1.0297
2026-02-23 00:40:52.705,0.0825,0.0015,1.0293,1.0326
2026-02-23 00:40:52.758,0.0811,0.0044,1.0322,1.0354
2026-02-23 00:40:52.811,0.0806,0.0029,1.0278,1.0310
2026-02-23 00:40:52.864,0.0859,0.0098,1.0405,1.0441
2026-02-23 00:40:52.917,0.0879,0.0049,1.0322,1.0360
2026-02-23 00:40:52.970,0.0815,0.0029,1.0288,1.0320
2026-02-23 00:40:53.024,0.0830,0.0098,1.0366,1.0400
2026-02-23 00:40:53.077,0.0801,0.0024,1.0303,1.0334
2026-02-23 00:40:53.130,0.0791,0.0093,1.0312,1.0343
2026-02-23 00:40:53.183,0.0811,0.0068,1.0308,1.0340
2026-02-23 00:40:53.236,0.0820,0.0054,1.0337,1.0370
2026-02-23 00:40:53.289,0.0825,0.0049,1.0259,1.0292
2026-02-23 00:40:53.342,0.0820,0.0063,1.0293,1.0326
2026-02-23 00:40:53.395,0.0815,0.0068,1.0288,1.0321
2026-02-23 00:40:53.448,0.0801,0.0088,1.0308,1.0339
2026-02-23 00:40:53.501,0.0806,0.0107,1.0322,1.0354
2026-02-23 00:40:53.554,0.0815,0.0073,1.0264,1.0296
2026-02-23 00:40:53.608,0.0806,0.0093,1.0293,1.0325
2026-02-23 00:40:53.661,0.0820,0.0063,1.0293,1.0326
2026-02-23 00:40:53.714,0.0840,0.0029,1.0303,1.0337
2026-02-23 00:40:53.767,0.0811,0.0024,1.0308,1.0339
2026-02-23 00:40:53.820,0.0835,0.0015,1.0342,1.0375
2026-02-23 00:40:53.873,0.0806,0.0024,1.0249,1.0281
2026-02-23 00:40:53.926,0.0830,0.0073,1.0308,1.0341
2026-02-23 00:40:53.979,0.0811,0.0063,1.0298,1.0330
2026-02-23 00:40:54.032,0.0845,0.0059,1.0337,1.0372
2026-02-23 00:40:54.085,0.0825,0.0034,1.0303,1.0336
2026-02-23 00:40:54.138,0.0854,0.0078,1.0317,1.0353
2026-02-23 00:40:54.191,0.0801,0.0059,1.0283,1.0315
2026-02-23 00:40:54.245,0.0825,0.0044,1.0308,1.0341
2026-02-23 00:40:54.298,0.0811,0.0049,1.0312,1.0344
2026-02-23 00:40:54.351,0.0815,0.0063,1.0322,1.0355
2026-02-23 00:40:54.404,0.0801,0.0073,1.0244,1.0276
2026-02-23 00:40:54.457,0.0801,0.0083,1.0298,1.0329
2026-02-23 00:40:54.510,0.0830,0.0024,1.0293,1.0326
2026-02-23 00:40:54.563,0.0820,0.0049,1.0361,1.0394
2026-02-23 00:40:54.616,0.0845,0.0088,1.0234,1.0270
2026-02-23 00:40:54.669,0.0835,0.0078,1.0308,1.0342
2026-02-23 00:40:54.722,0.0815,0.0024,1.0273,1.0306
2026-02-23 00:40:54.775,0.0786,0.0073,1.0254,1.0284
2026-02-23 00:40:54.828,0.0830,0.0073,1.0288,1.0322
2026-02-23 00:40:54.882,0.0786,0.0054,1.0312,1.0343
2026-02-23 00:40:54.935,0.0811,0.0059,1.0288,1.0320
2026-02-23 00:40:54.988,0.0796,0.0039,1.0229,1.0260
2026-02-23 00:40:55.041,0.0835,0.0039,1.0303,1.0337
2026-02-23 00:40:55.094,0.0811,0.0098,1.0356,1.0389
2026-02-23 00:40:55.147,0.0825,0.0059,1.0337,1.0370
2026-02-23 00:40:55.200,0.0776,0.0078,1.0308,1.0337
2026-02-23 00:40:55.253,0.0801,0.0063,1.0254,1.0285
2026-02-23 00:40:55.306,0.0859,0.0039,1.0332,1.0368
2026-02-23 00:40:55.359,0.0776,0.0068,1.0337,1.0366
2026-02-23 00:40:55.412,0.0791,0.0107,1.0337,1.0368
2026-02-23 00:40:55.465,0.0825,0.0034,1.0249,1.0282
2026-02-23 00:40:55.518,0.0835,0.0049,1.0259,1.0293
2026-02-23 00:40:55.571,0.0835,0.0063,1.0361,1.0395
2026-02-23 00:40:55.624,0.0771,0.0059,1.0273,1.0303
2026-02-23 00:40:55.678,0.0820,0.0054,1.0244,1.0277
2026-02-23 00:40:55.731,0.0796,0.0054,1.0278,1.0309
2026-02-23 00:40:55.784,0.0835,0.0063,1.0278,1.0312
2026-02-23 00:40:55.837,0.0845,0.0088,1.0288,1.0323
2026-02-23 00:40:55.890,0.0850,0.0093,1.0288,1.0324
2026-02-23 00:40:55.943,0.0879,0.0093,1.0312,1.0350
2026-02-23 00:40:55.996,0.0815,0.0068,1.0312,1.0345
2026-02-23 00:40:56.049,0.0840,0.0088,1.0308,1.0342
2026-02-23 00:40:56.103,0.0815,0.0073,1.0278,1.0311
2026-02-23 00:40:56.156,0.0786,0.0078,1.0332,1.0362
2026-02-23 00:40:56.209,0.0791,0.0000,1.0210,1.0241
2026-02-23 00:40:56.263,0.0781,0.0039,1.0293,1.0323
2026-02-23 00:40:56.316,0.0786,0.0093,1.0225,1.0255
2026-02-23 00:40:56.369,0.0845,0.0088,1.0317,1.0352
2026-02-23 00:40:56.423,0.0830,0.0029,1.0273,1.0307
2026-02-23 00:40:56.476,0.0825,0.0068,1.0269,1.0302
2026-02-23 00:40:56.529,0.0825,0.0083,1.0308,1.0341
2026-02-23 00:40:56.585,0.0869,0.0068,1.0308,1.0344
2026-02-23 00:40:56.639,0.0850,0.0078,1.0269,1.0304
2026-02-23 00:40:56.692,0.0815,0.0044,1.0303,1.0335
2026-02-23 00:40:56.746,0.0791,0.0049,1.0283,1.0314
2026-02-23 00:40:56.799,0.0801,0.0049,1.0342,1.0373
2026-02-23 00:40:56.852,0.0806,0.0063,1.0269,1.0300
2026-02-23 00:40:56.906,0.0830,0.0083,1.0332,1.0366
2026-02-23 00:40:56.959,0.0801,0.0054,1.0254,1.0285
2026-02-23 00:40:57.012,0.0815,-0.1206,1.0283,1.0386
2026-02-23 00:40:57.065,0.0825,0.0068,1.0293,1.0326
2026-02-23 00:40:57.119,0.0820,0.0015,1.0249,1.0282
2026-02-23 00:40:57.172,0.0840,0.0088,1.0342,1.0376
2026-02-23 00:40:57.225,0.0811,0.0073,1.0288,1.0320
2026-02-23 00:40:57.278,0.0859,0.0054,1.0259,1.0295
2026-02-23 00:40:57.331,0.0806,0.0073,1.0347,1.0378
2026-02-23 00:40:57.385,0.0815,0.0044,1.0293,1.0325
2026-02-23 00:40:57.438,0.0791,0.0063,1.0264,1.0294
2026-02-23 00:40:57.491,0.0806,0.0024,1.0312,1.0344
2026-02-23 00:40:57.544,0.0845,0.0063,1.0273,1.0308
2026-02-23 00:40:57.597,0.0830,0.0024,1.0269,1.0302
2026-02-23 00:40:57.651,0.0786,0.0083,1.0308,1.0338
2026-02-23 00:40:57.705,0.0796,0.0034,1.0278,1.0309
2026-02-23 00:40:57.758,0.0830,0.0073,1.0264,1.0297
2026-02-23 00:40:57.811,0.0806,0.0044,1.0259,1.0290
2026-02-23 00:40:57.864,0.0830,0.0059,1.0312,1.0346
2026-02-23 00:40:57.917,0.0791,0.0073,1.0288,1.0319
2026-02-23 00:40:57.970,0.0815,0.0054,1.0312,1.0345
2026-02-23 00:40:58.023,0.0806,0.0073,1.0405,1.0437
2026-02-23 00:40:58.076,0.0728,0.0073,1.0229,1.0256
2026-02-23 00:40:58.129,0.0869,0.0073,1.0322,1.0359
2026-02-23 00:40:58.183,0.0869,0.0068,1.0317,1.0354
2026-02-23 00:40:58.236,0.0791,0.0054,1.0186,1.0216
2026-02-23 00:40:58.289,0.0854,0.0068,1.0278,1.0314
2026-02-23 00:40:58.342,0.0840,0.0068,1.0293,1.0327
2026-02-23 00:40:58.395,0.0845,0.0142,1.0137,1.0173
2026-02-23 00:40:58.448,0.0625,0.0098,1.0244,1.0264
2026-02-23 00:40:58.501,0.0854,0.0005,1.0288,1.0324
2026-02-23 00:40:58.555,0.0869,0.0088,1.0317,1.0354
2026-02-23 00:40:58.608,0.0762,0.0029,1.0244,1.0272
2026-02-23 00:40:58.661,0.0820,0.0088,1.0298,1.0331
2026-02-23 00:40:58.715,0.0811,0.0103,1.0239,1.0272
2026-02-23 00:40:58.768,0.0820,0.0107,1.0303,1.0336
2026-02-23 00:40:58.821,0.0791,0.0049,1.0278,1.0309
2026-02-23 00:40:58.874,0.0815,0.0049,1.0259,1.0291
2026-02-23 00:40:58.927,0.0854,0.0049,1.0278,1.0314
2026-02-23 00:40:58.980,0.0825,0.0088,1.0273,1.0307
2026-02-23 00:40:59.033,0.0815,0.0049,1.0273,1.0306
2026-02-23 00:40:59.086,0.0859,0.0044,1.0312,1.0348
2026-02-23 00:40:59.139,0.0786,0.0078,1.0332,1.0362
2026-02-23 00:40:59.192,0.0806,0.0034,1.0317,1.0349
2026-02-23 00:40:59.245,0.0820,0.0078,1.0225,1.0258
2026-02-23 00:40:59.298,0.0791,0.0063,1.0322,1.0353
2026-02-23 00:40:59.351,0.0791,0.0093,1.0264,1.0295
2026-02-23 00:40:59.404,0.0811,0.0063,1.0283,1.0315
2026-02-23 00:40:59.458,0.0830,0.0059,1.0356,1.0390
2026-02-23 00:40:59.511,0.0801,0.0059,1.0249,1.0280
2026-02-23 00:40:59.564,0.0825,0.0049,1.0342,1.0375
2026-02-23 00:40:59.617,0.0776,0.0088,1.0312,1.0342
2026-02-23 00:40:59.670,0.0781,0.0068,1.0244,1.0274
2026-02-23 00:40:59.723,0.0776,0.0049,1.0342,1.0371
2026-02-23 00:40:59.776,0.0859,-0.1211,1.0249,1.0356
2026-02-23 00:40:59.829,0.0830,0.0039,1.0347,1.0380
2026-02-23 00:40:59.882,0.0801,0.0063,1.0337,1.0368
2026-02-23 00:40:59.935,0.0820,0.0078,1.0410,1.0443
2026-02-23 00:40:59.988,0.0796,0.0063,1.0308,1.0338
2026-02-23 00:41:00.041,0.0820,0.0029,1.0269,1.0301
2026-02-23 00:41:00.094,0.0796,0.0073,1.0254,1.0285
2026-02-23 00:41:00.147,0.0811,0.0078,1.0288,1.0320
2026-02-23 00:41:00.200,0.0776,0.0098,1.0239,1.0269
2026-02-23 00:41:00.253,0.0835,0.0000,1.0293,1.0327
2026-02-23 00:41:00.306,0.0767,-0.0039,1.0195,1.0224
2026-02-23 00:41:00.360,0.0801,0.0039,1.0337,1.0368
2026-02-23 00:41:00.413,0.0859,0.0063,1.0273,1.0310
2026-02-23 00:41:00.466,0.0796,0.0044,1.0312,1.0343
2026-02-23 00:41:00.519,0.0806,0.0054,1.0259,1.0291
2026-02-23 00:41:00.572,0.0825,0.0039,1.0254,1.0287
2026-02-23 00:41:00.625,0.0796,0.0054,1.0298,1.0329
2026-02-23 00:41:00.678,0.0820,0.0029,1.0239,1.0272
2026-02-23 00:41:00.731,0.0830,0.0039,1.0220,1.0253
2026-02-23 00:41:00.785,0.0815,0.0015,1.0317,1.0350
2026-02-23 00:41:00.838,0.0796,0.0059,1.0273,1.0304
2026-02-23 00:41:00.891,0.0801,0.0054,1.0303,1.0334
2026-02-23 00:41:00.944,0.0806,0.0049,1.0278,1.0310
2026-02-23 00:41:00.998,0.0801,0.0068,1.0229,1.0261
2026-02-23 00:41:01.051,0.0840,0.0107,1.0288,1.0323
2026-02-23 00:41:01.104,0.0815,0.0039,1.0322,1.0354
2026-02-23 00:41:01.157,0.0806,0.0063,1.0210,1.0242
2026-02-23 00:41:01.210,0.0864,-0.0142,1.0142,1.0179
2026-02-23 00:41:01.263,0.0811,0.0015,1.0273,1.0305
2026-02-23 00:41:01.316,0.0825,0.0054,1.0312,1.0346
2026-02-23 00:41:01.369,0.0767,0.0078,1.0259,1.0288
2026-02-23 00:41:01.422,0.0811,0.0068,1.0229,1.0262
2026-02-23 00:41:01.475,0.0820,0.0083,1.0181,1.0214
2026-02-23 00:41:01.528,0.0791,0.0034,1.0337,1.0367
2026-02-23 00:41:01.581,0.0840,0.0059,1.0317,1.0352
2026-02-23 00:41:01.634,0.0825,0.0059,1.0352,1.0385
2026-02-23 00:41:01.688,0.0884,0.0029,1.0195,1.0234
2026-02-23 00:41:01.741,0.0781,0.0073,1.0249,1.0279
2026-02-23 00:41:01.794,0.0815,0.0044,1.0269,1.0301
2026-02-23 00:41:01.847,0.0811,0.0039,1.0303,1.0335
2026-02-23 00:41:01.900,0.0830,0.0078,1.0215,1.0249
2026-02-23 00:41:01.953,0.0815,0.0054,1.0317,1.0350
2026-02-23 00:41:02.006,0.0874,0.0044,1.0308,1.0345
2026-02-23 00:41:02.059,0.0757,0.0073,1.0269,1.0297
2026-02-23 00:41:02.112,0.0806,0.0049,1.0273,1.0305
2026-02-23 00:41:02.165,0.0820,0.0039,1.0288,1.0321
2026-02-23 00:41:02.218,0.0840,0.0063,1.0298,1.0332
2026-02-23 00:41:02.271,0.0820,0.0024,1.0361,1.0394
2026-02-23 00:41:02.324,0.0806,0.0054,1.0332,1.0364
2026-02-23 00:41:02.377,0.0854,0.0020,1.0332,1.0367
2026-02-23 00:41:02.430,0.0791,0.0039,1.0298,1.0328
2026-02-23 00:41:02.483,0.0771,0.0049,1.0269,1.0298
2026-02-23 00:41:02.536,0.0791,0.0039,1.0308,1.0338
2026-02-23 00:41:02.589,0.0854,0.0107,1.0190,1.0227
2026-02-23 00:41:02.642,0.0806,0.0015,1.0332,1.0363
2026-02-23 00:41:02.695,0.0908,0.0054,1.0400,1.0440
2026-02-23 00:41:02.748,0.0767,0.0034,1.0293,1.0322
2026-02-23 00:41:02.801,0.0894,0.0107,1.0430,1.0468
2026-02-23 00:41:02.854,0.0742,0.0068,1.0288,1.0315
2026-02-23 00:41:02.908,0.0801,0.0093,1.0254,1.0286
2026-02-23 00:41:02.961,0.0811,0.0078,1.0161,1.0194
2026-02-23 00:41:03.014,0.0747,0.0044,1.0410,1.0437
2026-02-23 00:41:03.067,0.0806,0.0083,1.0254,1.0286
2026-02-23 00:41:03.120,0.0854,0.0059,1.0229,1.0265
2026-02-23 00:41:03.173,0.0854,0.0005,1.0312,1.0348
2026-02-23 00:41:03.226,0.0820,0.0073,1.0342,1.0375
2026-02-23 00:41:03.279,0.0859,0.0059,1.0317,1.0353
2026-02-23 00:41:03.332,0.0820,0.0088,1.0317,1.0350
2026-02-23 00:41:03.386,0.0796,0.0059,1.0298,1.0329
2026-02-23 00:41:03.439,0.0806,0.0073,1.0322,1.0354
2026-02-23 00:41:03.492,0.0811,0.0083,1.0264,1.0296
2026-02-23 00:41:03.545,0.0771,0.0054,1.0249,1.0278
2026-02-23 00:41:03.598,0.0767,0.0034,1.0273,1.0302
2026-02-23 00:41:03.651,0.0801,0.0063,1.0337,1.0368
2026-02-23 00:41:03.704,0.0830,0.0054,1.0312,1.0346
2026-02-23 00:41:03.757,0.0811,0.0063,1.0278,1.0310
2026-02-23 00:41:03.810,0.0806,0.0054,1.0298,1.0329
2026-02-23 00:41:03.863,0.0825,0.0029,1.0361,1.0394
2026-02-23 00:41:03.917,0.0811,0.0078,1.0312,1.0345
2026-02-23 00:41:03.970,0.0845,0.0015,1.0244,1.0279
2026-02-23 00:41:04.023,0.0801,0.0068,1.0249,1.0280
2026-02-23 00:41:04.076,0.0771,0.0010,1.0293,1.0322
2026-02-23 00:41:04.129,0.0811,0.0083,1.0264,1.0296
2026-02-23 00:41:04.182,0.0820,0.0044,1.0298,1.0331
2026-02-23 00:41:04.235,0.0815,0.0049,1.0244,1.0277
2026-02-23 00:41:04.288,0.0820,0.0073,1.0293,1.0326
2026-02-23 00:41:04.341,0.0781,0.0068,1.0303,1.0333
2026-02-23 00:41:04.394,0.0796,0.0063,1.0293,1.0324
2026-02-23 00:41:04.447,0.0796,0.0068,1.0234,1.0266
2026-02-23 00:41:04.500,0.0835,0.0093,1.0283,1.0317
2026-02-23 00:41:04.553,0.0811,0.0078,1.0337,1.0369
2026-02-23 00:41:04.606,0.0806,0.0059,1.0327,1.0359
2026-02-23 00:41:04.659,0.0830,0.0122,1.0283,1.0317
2026-02-23 00:41:04.712,0.0825,0.0103,1.0264,1.0297
2026-02-23 00:41:04.765,0.0811,0.0015,1.0317,1.0349
2026-02-23 00:41:04.818,0.0786,0.0024,1.0249,1.0279
2026-02-23 00:41:04.871,0.0776,0.0078,1.0312,1.0342
2026-02-23 00:41:04.924,0.0830,0.0029,1.0293,1.0326
2026-02-23 00:41:04.977,0.0845,0.0068,1.0342,1.0376
2026-02-23 00:41:05.031,0.0825,0.0063,1.0322,1.0355
2026-02-23 00:41:05.083,0.0820,0.0073,1.0278,1.0311
2026-02-23 00:41:05.137,0.0742,0.0132,1.0273,1.0301
2026-02-23 00:41:05.190,0.0801,0.0078,1.0220,1.0251
2026-02-23 00:41:05.243,0.0796,0.0073,1.0215,1.0246
2026-02-23 00:41:05.296,0.0762,0.0059,1.0317,1.0346
2026-02-23 00:41:05.349,0.0820,0.0044,1.0229,1.0262
2026-02-23 00:41:05.402,0.0806,0.0103,1.0288,1.0320
2026-02-23 00:41:05.455,0.0825,0.0059,1.0342,1.0375
2026-02-23 00:41:05.508,0.0806,0.0029,1.0312,1.0344
2026-02-23 00:41:05.561,0.0796,0.0039,1.0249,1.0280
2026-02-23 00:41:05.614,0.0796,0.0034,1.0244,1.0275
2026-02-23 00:41:05.667,0.0859,0.0063,1.0244,1.0280
2026-02-23 00:41:05.720,0.0786,0.0103,1.0312,1.0343
2026-02-23 00:41:05.773,0.0767,0.0098,1.0283,1.0312
2026-02-23 00:41:05.826,0.0845,0.0054,1.0327,1.0362
2026-02-23 00:41:05.883,0.0771,0.0015,1.0322,1.0351
2026-02-23 00:41:05.936,0.0786,0.0044,1.0327,1.0357
2026-02-23 00:41:05.989,0.0845,0.0059,1.0308,1.0342
2026-02-23 00:41:06.042,0.0786,0.0073,1.0229,1.0260
2026-02-23 00:41:06.095,0.0869,0.0059,1.0273,1.0310
2026-02-23 00:41:06.148,0.0854,0.0054,1.0264,1.0299
2026-02-23 00:41:06.201,0.0820,0.0107,1.0342,1.0375
2026-02-23 00:41:06.254,0.0840,0.0063,1.0234,1.0269
2026-02-23 00:41:06.307,0.0791,0.0073,1.0264,1.0294
2026-02-23 00:41:06.360,0.0820,0.0083,1.0254,1.0287
2026-02-23 00:41:06.414,0.0845,0.0078,1.0317,1.0352
2026-02-23 00:41:06.467,0.0815,0.0049,1.0366,1.0398
2026-02-23 00:41:06.520,0.0776,0.0020,1.0269,1.0298
2026-02-23 00:41:06.573,0.0854,0.0059,1.0278,1.0314
2026-02-23 00:41:06.626,0.0840,0.0010,1.0308,1.0342
2026-02-23 00:41:06.679,0.0845,0.0083,1.0288,1.0323
2026-02-23 00:41:06.732,0.0801,0.0063,1.0308,1.0339
2026-02-23 00:41:06.785,0.0815,0.0142,1.0249,1.0282
2026-02-23 00:41:06.838,0.0801,0.0054,1.0200,1.0232
2026-02-23 00:41:06.891,0.0820,0.0122,1.0288,1.0321
2026-02-23 00:41:06.944,0.0840,0.0059,1.0283,1.0318
2026-02-23 00:41:06.997,0.0830,0.0088,1.0337,1.0371
2026-02-23 00:41:07.050,0.0815,0.0098,1.0312,1.0345
2026-02-23 00:41:07.103,0.0791,0.0078,1.0269,1.0299
2026-02-23 00:41:07.156,0.0811,0.0073,1.0264,1.0296
2026-02-23 00:41:07.209,0.0801,0.0078,1.0259,1.0290
2026-02-23 00:41:07.263,0.0762,0.0020,1.0288,1.0316
2026-02-23 00:41:07.316,0.0781,-0.0024,1.0366,1.0396
2026-02-23 00:41:07.369,0.0825,0.0073,1.0361,1.0394
2026-02-23 00:41:07.422,0.0913,0.0142,1.0322,1.0364
2026-02-23 00:41:07.475,0.0859,0.0068,1.0317,1.0353
2026-02-23 00:41:07.528,0.0747,0.0049,1.0239,1.0267
2026-02-23 00:41:07.581,0.0703,0.0068,1.0303,1.0327
2026-02-23 00:41:07.634,0.0430,0.0220,1.0449,1.0460
2026-02-23 00:41:07.687,0.0820,0.0210,1.0293,1.0328
2026-02-23 00:41:07.740,0.0840,0.0078,1.0391,1.0425
2026-02-23 00:41:07.793,0.0796,0.0049,1.0229,1.0261
2026-02-23 00:41:07.846,0.0742,0.0107,1.0288,1.0315
2026-02-23 00:41:07.899,0.0830,0.0020,1.0317,1.0351
2026-02-23 00:41:07.953,0.0957,-0.1245,1.0337,1.0456
2026-02-23 00:41:08.006,0.0835,0.0010,1.0269,1.0302
2026-02-23 00:41:08.059,0.0625,0.0093,1.0220,1.0239
2026-02-23 00:41:08.112,0.1016,0.0078,1.0278,1.0329
2026-02-23 00:41:08.165,0.0879,0.0122,1.0356,1.0394
2026-02-23 00:41:08.218,0.0991,0.0122,1.0322,1.0370
2026-02-23 00:41:08.271,0.0908,0.0024,1.0288,1.0328
2026-02-23 00:41:08.324,0.0815,0.0054,1.0396,1.0428
2026-02-23 00:41:08.377,0.0820,0.0015,1.0259,1.0292
2026-02-23 00:41:08.430,0.0898,0.0098,1.0273,1.0313
2026-02-23 00:41:08.483,0.0840,0.0093,1.0273,1.0308
2026-02-23 00:41:08.536,0.0830,0.0034,1.0244,1.0278
2026-02-23 00:41:08.589,0.0820,0.0059,1.0293,1.0326
2026-02-23 00:41:08.642,0.0845,0.0063,1.0288,1.0323
2026-02-23 00:41:08.696,0.0835,0.0068,1.0303,1.0337
2026-02-23 00:41:08.749,0.0845,0.0049,1.0327,1.0362
2026-02-23 00:41:08.802,0.0801,0.0049,1.0288,1.0319
2026-02-23 00:41:08.855,0.0835,0.0029,1.0293,1.0327
2026-02-23 00:41:08.908,0.0806,0.0049,1.0210,1.0242
2026-02-23 00:41:08.961,0.0815,0.0063,1.0229,1.0262
2026-02-23 00:41:09.014,0.0820,0.0010,1.0278,1.0311
2026-02-23 00:41:09.067,0.0874,0.0073,1.0288,1.0325
2026-02-23 00:41:09.120,0.0811,0.0103,1.0347,1.0379
2026-02-23 00:41:09.173,0.0835,0.0068,1.0249,1.0283
2026-02-23 00:41:09.226,0.0825,0.0029,1.0195,1.0229
2026-02-23 00:41:09.280,0.0854,0.0063,1.0332,1.0367
2026-02-23 00:41:09.333,0.0811,0.0063,1.0332,1.0364
2026-02-23 00:41:09.386,0.0903,0.0088,1.0312,1.0352
2026-02-23 00:41:09.439,0.0776,0.0107,1.0254,1.0284
2026-02-23 00:41:09.492,0.0825,0.0015,1.0234,1.0268
2026-02-23 00:41:09.545,0.0815,0.0073,1.0322,1.0355
2026-02-23 00:41:09.598,0.0825,0.0059,1.0293,1.0326
2026-02-23 00:41:09.674,0.0869,0.0024,1.0264,1.0300
2026-02-23 00:41:09.729,0.0830,0.0054,1.0244,1.0278
2026-02-23 00:41:09.783,0.0771,0.0068,1.0332,1.0361
2026-02-23 00:41:09.836,0.0781,0.0078,1.0312,1.0342
2026-02-23 00:41:09.889,0.0811,0.0044,1.0283,1.0315
2026-02-23 00:41:09.942,0.0781,0.0073,1.0352,1.0381
2026-02-23 00:41:09.995,0.0806,0.0024,1.0298,1.0329
2026-02-23 00:41:10.048,0.0820,0.0039,1.0322,1.0355
2026-02-23 00:41:10.104,0.0811,0.0078,1.0278,1.0311
2026-02-23 00:41:10.157,0.0820,0.0112,1.0264,1.0297
2026-02-23 00:41:10.210,0.0825,0.0073,1.0278,1.0312
2026-02-23 00:41:10.263,0.0811,0.0073,1.0352,1.0384
2026-02-23 00:41:10.316,0.0825,0.0020,1.0278,1.0311
2026-02-23 00:41:10.370,0.0830,0.0044,1.0288,1.0322
2026-02-23 00:41:10.423,0.0830,0.0054,1.0288,1.0322
2026-02-23 00:41:10.476,0.0811,0.0039,1.0298,1.0330
2026-02-23 00:41:10.529,0.0786,0.0068,1.0332,1.0362
2026-02-23 00:41:10.583,0.0815,0.0103,1.0269,1.0301
2026-02-23 00:41:10.640,0.0811,0.0005,1.0259,1.0291
2026-02-23 00:41:10.693,0.0786,0.0059,1.0337,1.0367
2026-02-23 00:41:10.746,0.0845,0.0015,1.0342,1.0376
2026-02-23 00:41:10.799,0.0850,0.0063,1.0322,1.0357
2026-02-23 00:41:10.852,0.0806,0.0063,1.0356,1.0388
2026-02-23 00:41:10.906,0.0786,0.0044,1.0273,1.0304
2026-02-23 00:41:10.959,0.0830,0.0029,1.0298,1.0331
2026-02-23 00:41:11.012,0.0771,0.0039,1.0303,1.0332
2026-02-23 00:41:11.065,0.0811,0.0020,1.0332,1.0364
2026-02-23 00:41:11.118,0.0811,0.0039,1.0293,1.0325
2026-02-23 00:41:11.171,0.0806,0.0078,1.0356,1.0388
2026-02-23 00:41:11.224,0.0786,0.0078,1.0317,1.0348
2026-02-23 00:41:11.277,0.0884,0.0098,1.0317,1.0356
2026-02-23 00:41:11.330,0.0771,0.0054,1.0288,1.0317
2026-02-23 00:41:11.383,0.0879,0.0054,1.0288,1.0326
2026-02-23 00:41:11.436,0.0791,0.0063,1.0264,1.0294
2026-02-23 00:41:11.489,0.0874,0.0020,1.0366,1.0403
2026-02-23 00:41:11.543,0.0835,0.0068,1.0308,1.0342
2026-02-23 00:41:11.596,0.0845,0.0054,1.0225,1.0260
2026-02-23 00:41:11.649,0.0830,0.0078,1.0283,1.0317
2026-02-23 00:41:11.702,0.0864,0.0054,1.0312,1.0349
2026-02-23 00:41:11.755,0.0776,0.0044,1.0293,1.0322
2026-02-23 00:41:11.808,0.0786,0.0059,1.0322,1.0352
2026-02-23 00:41:11.861,0.0825,0.0059,1.0288,1.0321
2026-02-23 00:41:11.914,0.0806,0.0059,1.0361,1.0393
2026-02-23 00:41:11.967,0.0825,0.0068,1.0361,1.0394
2026-02-23 00:41:12.020,0.0820,0.0034,1.0342,1.0374
2026-02-23 00:41:12.073,0.0776,0.0073,1.0278,1.0308
2026-02-23 00:41:12.126,0.0864,0.0073,1.0312,1.0349
2026-02-23 00:41:12.179,0.0835,0.0020,1.0317,1.0351
2026-02-23 00:41:12.232,0.0850,0.0054,1.0327,1.0362
2026-02-23 00:41:12.285,0.0864,0.0083,1.0249,1.0286
2026-02-23 00:41:12.338,0.0825,0.0073,1.0312,1.0346
2026-02-23 00:41:12.391,0.0806,0.0059,1.0312,1.0344
2026-02-23 00:41:12.445,0.0850,0.0068,1.0171,1.0207
2026-02-23 00:41:12.498,0.0815,0.0020,1.0254,1.0286
2026-02-23 00:41:12.551,0.0825,0.0068,1.0254,1.0287
2026-02-23 00:41:12.604,0.0811,0.0044,1.0254,1.0286
2026-02-23 00:41:12.657,0.0830,0.0068,1.0322,1.0356
2026-02-23 00:41:12.710,0.0801,0.0073,1.0342,1.0373
2026-02-23 00:41:12.763,0.0830,0.0073,1.0249,1.0283
2026-02-23 00:41:12.816,0.0830,0.0054,1.0283,1.0317
2026-02-23 00:41:12.872,0.0845,0.0063,1.0264,1.0299
2026-02-23 00:41:12.925,0.0840,0.0044,1.0278,1.0313
2026-02-23 00:41:12.978,0.0830,0.0073,1.0244,1.0278
2026-02-23 00:41:13.031,0.0820,0.0029,1.0225,1.0258
2026-02-23 00:41:13.084,0.0820,0.0093,1.0254,1.0287
2026-02-23 00:41:13.138,0.0820,0.0059,1.0298,1.0331
2026-02-23 00:41:13.191,0.0825,0.0020,1.0342,1.0375
2026-02-23 00:41:13.244,0.0825,0.0059,1.0298,1.0331
2026-02-23 00:41:13.297,0.0835,0.0059,1.0337,1.0371
2026-02-23 00:41:13.350,0.0815,0.0044,1.0322,1.0355
2026-02-23 00:41:13.404,0.0840,0.0020,1.0244,1.0279
2026-02-23 00:41:13.457,0.0835,0.0068,1.0327,1.0361
2026-02-23 00:41:13.510,0.0854,0.0093,1.0303,1.0339
2026-02-23 00:41:13.563,0.0845,0.0073,1.0239,1.0274
2026-02-23 00:41:13.616,0.0815,0.0029,1.0283,1.0316
2026-02-23 00:41:13.670,0.0767,0.0093,1.0254,1.0283
2026-02-23 00:41:13.723,0.0776,0.0078,1.0312,1.0342
2026-02-23 00:41:13.776,0.0796,0.0034,1.0234,1.0265
2026-02-23 00:41:13.829,0.0840,0.0029,1.0322,1.0356
2026-02-23 00:41:13.883,0.0825,0.0073,1.0327,1.0360
2026-02-23 00:41:13.936,0.0806,0.0059,1.0293,1.0325
2026-02-23 00:41:13.989,0.0801,0.0024,1.0200,1.0232
2026-02-23 00:41:14.042,0.0801,0.0103,1.0312,1.0344
2026-02-23 00:41:14.095,0.0854,0.0068,1.0303,1.0338
2026-02-23 00:41:14.148,0.0820,0.0093,1.0278,1.0311
2026-02-23 00:41:14.201,0.0815,0.0063,1.0303,1.0335
2026-02-23 00:41:14.254,0.0835,0.0049,1.0352,1.0385
2026-02-23 00:41:14.307,0.0830,0.0098,1.0298,1.0332
2026-02-23 00:41:14.361,0.0825,0.0044,1.0312,1.0346
2026-02-23 00:41:14.414,0.0815,0.0107,1.0327,1.0360
2026-02-23 00:41:14.467,0.0835,0.0039,1.0273,1.0307
2026-02-23 00:41:14.520,0.0771,0.0073,1.0293,1.0322
2026-02-23 00:41:14.573,0.0850,0.0054,1.0269,1.0304
2026-02-23 00:41:14.626,0.0820,0.0063,1.0244,1.0277
2026-02-23 00:41:14.679,0.0825,0.0034,1.0288,1.0321
2026-02-23 00:41:14.733,0.0771,0.0039,1.0293,1.0322
2026-02-23 00:41:14.786,0.0811,0.0054,1.0312,1.0344
2026-02-23 00:41:14.839,0.0840,0.0044,1.0327,1.0361
2026-02-23 00:41:14.892,0.0830,0.0083,1.0269,1.0302
2026-02-23 00:41:14.945,0.0791,0.0049,1.0293,1.0323
2026-02-23 00:41:14.998,0.0854,0.0088,1.0332,1.0368
2026-02-23 00:41:15.051,0.0830,0.0044,1.0371,1.0404
2026-02-23 00:41:15.104,0.0830,0.0078,1.0303,1.0336
2026-02-23 00:41:15.157,0.0786,0.0063,1.0278,1.0309
2026-02-23 00:41:15.210,0.0835,0.0088,1.0269,1.0303
2026-02-23 00:41:15.263,0.0815,0.0083,1.0322,1.0355
2026-02-23 00:41:15.316,0.0806,0.0059,1.0269,1.0300
2026-02-23 00:41:15.369,0.0806,0.0044,1.0308,1.0339
2026-02-23 00:41:15.422,0.0869,0.0054,1.0229,1.0266
2026-02-23 00:41:15.475,0.0820,0.0029,1.0278,1.0311
2026-02-23 00:41:15.528,0.0835,0.0020,1.0337,1.0371
2026-02-23 00:41:15.581,0.0771,0.0093,1.0293,1.0322
2026-02-23 00:41:15.634,0.0820,0.0029,1.0317,1.0350
2026-02-23 00:41:15.687,0.0859,0.0020,1.0342,1.0377
2026-02-23 00:41:15.740,0.0786,0.0044,1.0317,1.0347
2026-02-23 00:41:15.794,0.0830,0.0024,1.0269,1.0302
2026-02-23 00:41:15.847,0.0854,0.0083,1.0288,1.0324
2026-02-23 00:41:15.900,0.0771,0.0073,1.0264,1.0293
2026-02-23 00:41:15.953,0.0850,0.0063,1.0332,1.0367
2026-02-23 00:41:16.006,0.0806,0.0015,1.0283,1.0315
2026-02-23 00:41:16.059,0.0820,0.0083,1.0283,1.0316
2026-02-23 00:41:16.112,0.0781,0.0049,1.0269,1.0298
2026-02-23 00:41:16.165,0.0835,0.0044,1.0322,1.0356
2026-02-23 00:41:16.219,0.0811,0.0059,1.0337,1.0369
2026-02-23 00:41:16.272,0.0840,-0.1245,1.0288,1.0397
2026-02-23 00:41:16.325,0.0806,0.0054,1.0249,1.0281
2026-02-23 00:41:16.378,0.0776,0.0073,1.0381,1.0410
2026-02-23 00:41:16.431,0.0815,0.0068,1.0298,1.0330
2026-02-23 00:41:16.484,0.0820,0.0073,1.0264,1.0297
2026-02-23 00:41:16.538,0.0820,0.0093,1.0337,1.0370
2026-02-23 00:41:16.591,0.0820,0.0029,1.0356,1.0389
2026-02-23 00:41:16.644,0.0854,0.0068,1.0249,1.0285
2026-02-23 00:41:16.697,0.0825,0.0039,1.0337,1.0370
2026-02-23 00:41:16.750,0.0830,0.0073,1.0347,1.0380
2026-02-23 00:41:16.806,0.0811,0.0083,1.0225,1.0257
2026-02-23 00:41:16.860,0.0840,0.0010,1.0249,1.0283
2026-02-23 00:41:16.913,0.0781,0.0034,1.0317,1.0347
2026-02-23 00:41:16.966,0.0811,-0.0005,1.0229,1.0262
2026-02-23 00:41:17.019,0.0811,0.0063,1.0254,1.0286
2026-02-23 00:41:17.072,0.0820,0.0029,1.0283,1.0316
2026-02-23 00:41:17.125,0.0942,0.0103,1.0234,1.0278
2026-02-23 00:41:17.178,0.0845,-0.0039,1.0259,1.0294
2026-02-23 00:41:17.231,0.0840,0.0103,1.0293,1.0328
2026-02-23 00:41:17.284,0.0820,0.0029,1.0342,1.0374
2026-02-23 00:41:17.337,0.0820,0.0083,1.0322,1.0355
2026-02-23 00:41:17.390,0.0786,0.0093,1.0332,1.0362
2026-02-23 00:41:17.443,0.0835,-0.0005,1.0312,1.0346
2026-02-23 00:41:17.496,0.0850,0.0034,1.0293,1.0328
2026-02-23 00:41:17.549,0.0840,0.0059,1.0303,1.0337
2026-02-23 00:41:17.602,0.0806,0.0073,1.0278,1.0310
2026-02-23 00:41:17.655,0.0815,0.0024,1.0259,1.0291
2026-02-23 00:41:17.708,0.0791,0.0063,1.0327,1.0358
2026-02-23 00:41:17.761,0.0850,0.0063,1.0273,1.0309
2026-02-23 00:41:17.814,0.0859,0.0068,1.0283,1.0319
2026-02-23 00:41:17.867,0.0850,0.0049,1.0312,1.0348
2026-02-23 00:41:17.920,0.0850,0.0039,1.0303,1.0338
2026-02-23 00:41:17.973,0.0815,0.0034,1.0298,1.0330
2026-02-23 00:41:18.026,0.0820,0.0073,1.0269,1.0302
2026-02-23 00:41:18.079,0.0840,0.0073,1.0293,1.0327
2026-02-23 00:41:18.132,0.0781,0.0068,1.0337,1.0367
2026-02-23 00:41:18.185,0.0854,0.0054,1.0269,1.0304
2026-02-23 00:41:18.238,0.0859,0.0059,1.0264,1.0300
2026-02-23 00:41:18.291,0.0781,0.0059,1.0254,1.0284
2026-02-23 00:41:18.345,0.0806,0.0083,1.0293,1.0325
2026-02-23 00:41:18.398,0.0850,0.0054,1.0254,1.0289
2026-02-23 00:41:18.451,0.0811,0.0073,1.0312,1.0345
2026-02-23 00:41:18.504,0.0835,0.0073,1.0225,1.0259
2026-02-23 00:41:18.557,0.0879,0.0054,1.0322,1.0360
2026-02-23 00:41:18.610,0.0757,0.0107,1.0347,1.0375
2026-02-23 00:41:18.663,0.0884,0.0024,1.0303,1.0341
2026-02-23 00:41:18.716,0.0811,0.0054,1.0327,1.0359
2026-02-23 00:41:18.769,0.0825,0.0049,1.0347,1.0380
2026-02-23 00:41:18.822,0.0835,0.0039,1.0225,1.0259
2026-02-23 00:41:18.875,0.0801,0.0049,1.0308,1.0339
2026-02-23 00:41:18.928,0.0835,0.0063,1.0283,1.0317
2026-02-23 00:41:18.981,0.0781,0.0078,1.0298,1.0328
2026-02-23 00:41:19.034,0.0820,0.0068,1.0273,1.0306
2026-02-23 00:41:19.087,0.0825,0.0107,1.0254,1.0288
2026-02-23 00:41:19.140,0.0840,0.0088,1.0342,1.0376
2026-02-23 00:41:19.193,0.0854,0.0068,1.0303,1.0338
2026-02-23 00:41:19.246,0.0835,0.0029,1.0249,1.0283
2026-02-23 00:41:19.300,0.0796,0.0063,1.0288,1.0319
2026-02-23 00:41:19.353,0.0850,0.0073,1.0342,1.0377
2026-02-23 00:41:19.406,0.0835,0.0054,1.0283,1.0317
2026-02-23 00:41:19.459,0.0801,0.0083,1.0303,1.0334
2026-02-23 00:41:19.512,0.0830,0.0029,1.0254,1.0287
2026-02-23 00:41:19.565,0.0815,0.0103,1.0244,1.0277
2026-02-23 00:41:19.618,0.0835,0.0034,1.0312,1.0346
2026-02-23 00:41:19.671,0.0820,0.0049,1.0229,1.0262
2026-02-23 00:41:19.724,0.0815,-0.0005,1.0337,1.0369
2026-02-23 00:41:19.777,0.0830,0.0059,1.0337,1.0370
2026-02-23 00:41:19.830,0.0811,0.0132,1.0293,1.0326
2026-02-23 00:41:19.885,0.0820,0.0020,1.0293,1.0326
2026-02-23 00:41:19.938,0.0825,0.0059,1.0244,1.0277
2026-02-23 00:41:19.991,0.0796,0.0049,1.0317,1.0348
2026-02-23 00:41:20.044,0.0801,0.0083,1.0264,1.0295
2026-02-23 00:41:20.097,0.0825,0.0093,1.0239,1.0273
2026-02-23 00:41:20.150,0.0825,0.0059,1.0327,1.0360
2026-02-23 00:41:20.203,0.0850,0.0059,1.0342,1.0377
2026-02-23 00:41:20.256,0.0786,0.0049,1.0273,1.0304
2026-02-23 00:41:20.309,0.0815,0.0063,1.0308,1.0340
2026-02-23 00:41:20.362,0.0796,0.0073,1.0283,1.0314
2026-02-23 00:41:20.415,0.0796,0.0039,1.0308,1.0338
2026-02-23 00:41:20.468,0.0806,0.0020,1.0293,1.0324
2026-02-23 00:41:20.521,0.0840,0.0083,1.0278,1.0313
2026-02-23 00:41:20.574,0.0825,0.0088,1.0288,1.0322
2026-02-23 00:41:20.627,0.0830,0.0024,1.0337,1.0370
2026-02-23 00:41:20.680,0.0850,0.0059,1.0273,1.0309
2026-02-23 00:41:20.733,0.0854,0.0068,1.0308,1.0343
2026-02-23 00:41:20.786,0.0815,0.0039,1.0303,1.0335
2026-02-23 00:41:20.839,0.0840,0.0068,1.0264,1.0298
2026-02-23 00:41:20.892,0.0840,0.0103,1.0293,1.0328
2026-02-23 00:41:20.945,0.0811,0.0024,1.0308,1.0339
2026-02-23 00:41:20.998,0.0859,0.0029,1.0298,1.0334
2026-02-23 00:41:21.051,0.0825,0.0034,1.0308,1.0341
2026-02-23 00:41:21.104,0.0825,0.0078,1.0312,1.0346
2026-02-23 00:41:21.157,0.0854,0.0073,1.0288,1.0324
2026-02-23 00:41:21.210,0.0815,0.0083,1.0288,1.0321
2026-02-23 00:41:21.263,0.0840,0.0059,1.0229,1.0264
2026-02-23 00:41:21.316,0.0830,0.0024,1.0278,1.0312
2026-02-23 00:41:21.370,0.0874,0.0020,1.0283,1.0320
2026-02-23 00:41:21.423,0.0815,0.0103,1.0352,1.0384
2026-02-23 00:41:21.476,0.0869,0.0034,1.0342,1.0378
2026-02-23 00:41:21.529,0.0806,0.0049,1.0293,1.0325
2026-02-23 00:41:21.582,0.0791,0.0068,1.0327,1.0358
2026-02-23 00:41:21.635,0.0840,0.0054,1.0308,1.0342
2026-02-23 00:41:21.688,0.0825,0.0039,1.0312,1.0346
2026-02-23 00:41:21.741,0.0815,0.0093,1.0234,1.0267
2026-02-23 00:41:21.794,0.0820,0.0049,1.0298,1.0331
2026-02-23 00:41:21.847,0.0840,0.0010,1.0273,1.0308
2026-02-23 00:41:21.900,0.0835,0.0059,1.0293,1.0327
2026-02-23 00:41:21.953,0.0806,0.0073,1.0288,1.0320
2026-02-23 00:41:22.006,0.0845,0.0068,1.0210,1.0245
2026-02-23 00:41:22.059,0.0825,0.0059,1.0264,1.0297
2026-02-23 00:41:22.112,0.0811,0.0083,1.0303,1.0335
2026-02-23 00:41:22.165,0.0801,0.0024,1.0352,1.0383
2026-02-23 00:41:22.218,0.0820,0.0044,1.0278,1.0311
2026-02-23 00:41:22.271,0.0796,0.0044,1.0186,1.0217
2026-02-23 00:41:22.324,0.0845,0.0044,1.0205,1.0240
2026-02-23 00:41:22.377,0.0869,0.0059,1.0259,1.0296
2026-02-23 00:41:22.431,0.0850,0.0049,1.0366,1.0401
2026-02-23 00:41:22.484,0.0859,0.0073,1.0342,1.0378
2026-02-23 00:41:22.537,0.0825,0.0039,1.0244,1.0277
2026-02-23 00:41:22.590,0.0820,0.0059,1.0312,1.0345
2026-02-23 00:41:22.643,0.0835,0.0059,1.0303,1.0337
2026-02-23 00:41:22.696,0.0825,0.0034,1.0254,1.0287
2026-02-23 00:41:22.749,0.0811,0.0063,1.0278,1.0310
2026-02-23 00:41:22.802,0.0806,0.0107,1.0317,1.0349
2026-02-23 00:41:22.855,0.0806,0.0034,1.0308,1.0339
2026-02-23 00:41:22.908,0.0811,0.0093,1.0361,1.0393
2026-02-23 00:41:22.961,0.0811,0.0088,1.0337,1.0369
2026-02-23 00:41:23.014,0.0791,0.0063,1.0347,1.0377
2026-02-23 00:41:23.067,0.0791,0.0024,1.0288,1.0318
2026-02-23 00:41:23.120,0.0850,0.0068,1.0269,1.0304
2026-02-23 00:41:23.173,0.0806,0.0107,1.0215,1.0247
2026-02-23 00:41:23.226,0.0781,0.0029,1.0352,1.0381
2026-02-23 00:41:23.279,0.0884,0.0039,1.0342,1.0380
2026-02-23 00:41:23.332,0.0811,0.0117,1.0278,1.0311
2026-02-23 00:41:23.386,0.0811,0.0068,1.0317,1.0349
2026-02-23 00:41:23.439,0.0845,-0.1152,1.0513,1.0609
2026-02-23 00:41:23.492,0.0840,0.0073,1.0264,1.0298
2026-02-23 00:41:23.545,0.0811,0.0029,1.0352,1.0383
2026-02-23 00:41:23.598,0.0850,0.0029,1.0371,1.0406
2026-02-23 00:41:23.651,0.0771,0.0049,1.0244,1.0273
2026-02-23 00:41:23.704,0.0791,-0.0010,1.0337,1.0367
2026-02-23 00:41:23.757,0.0869,0.0044,1.0259,1.0296
2026-02-23 00:41:23.810,0.0840,0.0073,1.0205,1.0240
2026-02-23 00:41:23.863,0.0859,0.0068,1.0239,1.0275
2026-02-23 00:41:23.916,0.0791,0.0073,1.0210,1.0241
2026-02-23 00:41:23.969,0.0815,0.0054,1.0273,1.0306
2026-02-23 00:41:24.022,0.0864,0.0078,1.0376,1.0412
2026-02-23 00:41:24.075,0.0879,0.0044,1.0229,1.0267
2026-02-23 00:41:24.128,0.0791,0.0068,1.0327,1.0358
2026-02-23 00:41:24.181,0.0786,0.0063,1.0317,1.0347
2026-02-23 00:41:24.234,0.0840,0.0068,1.0273,1.0308
2026-02-23 00:41:24.287,0.0796,0.0093,1.0264,1.0295
2026-02-23 00:41:24.340,0.0845,0.0029,1.0317,1.0352
2026-02-23 00:41:24.393,0.0801,0.0059,1.0278,1.0310
2026-02-23 00:41:24.446,0.0840,0.0068,1.0288,1.0323
2026-02-23 00:41:24.499,0.0786,0.0117,1.0332,1.0363
2026-02-23 00:41:24.552,0.0869,0.0024,1.0361,1.0398
2026-02-23 00:41:24.606,0.0806,0.0088,1.0366,1.0398
2026-02-23 00:41:24.659,0.0845,0.0068,1.0317,1.0352
2026-02-23 00:41:24.712,0.0806,0.0063,1.0273,1.0305
2026-02-23 00:41:24.765,0.0825,0.0078,1.0332,1.0365
2026-02-23 00:41:24.818,0.0801,0.0063,1.0347,1.0378
2026-02-23 00:41:24.871,0.0830,0.0039,1.0322,1.0356
2026-02-23 00:41:24.924,0.0903,0.0093,1.0356,1.0396
2026-02-23 00:41:24.977,0.0620,0.0327,1.0278,1.0302
2026-02-23 00:41:25.030,0.0854,0.0103,1.0317,1.0353
2026-02-23 00:41:25.083,0.0854,0.0034,1.0293,1.0328
2026-02-23 00:41:25.136,0.0781,0.0083,1.0342,1.0372
2026-02-23 00:41:25.189,0.0801,0.0049,1.0312,1.0344
2026-02-23 00:41:25.242,0.0859,0.0059,1.0298,1.0334
2026-02-23 00:41:25.295,0.0835,0.0029,1.0303,1.0337
2026-02-23 00:41:25.348,0.0811,0.0034,1.0254,1.0286
2026-02-23 00:41:25.401,0.0830,0.0034,1.0303,1.0336
2026-02-23 00:41:25.455,0.0801,0.0049,1.0312,1.0344
2026-02-23 00:41:25.508,0.0825,0.0049,1.0322,1.0355
2026-02-23 00:41:25.561,0.0781,0.0093,1.0278,1.0308
2026-02-23 00:41:25.614,0.0835,0.0083,1.0361,1.0395
2026-02-23 00:41:25.667,0.0859,0.0117,1.0303,1.0339
2026-02-23 00:41:25.720,0.0889,0.0039,1.0264,1.0302
2026-02-23 00:41:25.773,0.0840,0.0083,1.0386,1.0420
2026-02-23 00:41:25.826,0.0830,0.0054,1.0229,1.0263
2026-02-23 00:41:25.879,0.0820,0.0054,1.0269,1.0301
2026-02-23 00:41:25.932,0.0801,0.0068,1.0283,1.0315
2026-02-23 00:41:25.985,0.0791,0.0098,1.0322,1.0353
2026-02-23 00:41:26.038,0.0825,0.0059,1.0298,1.0331
2026-02-23 00:41:26.091,0.0835,0.0063,1.0269,1.0303
2026-02-23 00:41:26.144,0.0854,0.0063,1.0283,1.0319
2026-02-23 00:41:26.198,0.0791,0.0078,1.0347,1.0377
2026-02-23 00:41:26.251,0.0820,0.0049,1.0249,1.0282
2026-02-23 00:41:26.304,0.0815,0.0049,1.0288,1.0320
2026-02-23 00:41:26.357,0.0825,0.0063,1.0352,1.0385
2026-02-23 00:41:26.410,0.0830,0.0034,1.0303,1.0336
2026-02-23 00:41:26.463,0.0811,0.0068,1.0327,1.0359
2026-02-23 00:41:26.516,0.0825,0.0103,1.0303,1.0336
2026-02-23 00:41:26.569,0.0801,0.0093,1.0244,1.0276
2026-02-23 00:41:26.622,0.0801,0.0039,1.0278,1.0310
2026-02-23 00:41:26.675,0.0889,0.0083,1.0400,1.0439
2026-02-23 00:41:26.728,0.0791,0.0034,1.0352,1.0382
2026-02-23 00:41:26.781,0.0835,0.0039,1.0308,1.0341
2026-02-23 00:41:26.834,0.0864,0.0010,1.0303,1.0339
2026-02-23 00:41:26.887,0.0791,0.0063,1.0186,1.0216
2026-02-23 00:41:26.940,0.0850,0.0063,1.0259,1.0294
2026-02-23 00:41:26.993,0.0806,0.0068,1.0317,1.0349
2026-02-23 00:41:27.046,0.0820,0.0039,1.0352,1.0384
2026-02-23 00:41:27.099,0.0840,0.0024,1.0244,1.0279
2026-02-23 00:41:27.152,0.0854,0.0024,1.0298,1.0333
2026-02-23 00:41:27.205,0.0825,0.0112,1.0312,1.0346
2026-02-23 00:41:27.258,0.0776,0.0088,1.0273,1.0303
2026-02-23 00:41:27.311,0.0605,-0.0010,1.0264,1.0282
2026-02-23 00:41:27.364,0.1030,0.0166,1.0420,1.0472
2026-02-23 00:41:27.418,0.0835,0.0093,1.0269,1.0303
2026-02-23 00:41:27.471,0.0801,0.0073,1.0259,1.0290
2026-02-23 00:41:27.524,0.0874,0.0103,1.0254,1.0292
2026-02-23 00:41:27.577,0.0820,0.0078,1.0312,1.0345
2026-02-23 00:41:27.630,0.0859,0.0049,1.0298,1.0334
2026-02-23 00:41:27.684,0.0801,0.0049,1.0293,1.0324
2026-02-23 00:41:27.737,0.0801,0.0049,1.0337,1.0368
2026-02-23 00:41:27.790,0.0845,0.0059,1.0337,1.0372
2026-02-23 00:41:27.843,0.0850,0.0039,1.0298,1.0333
2026-02-23 00:41:27.897,0.0845,0.0054,1.0239,1.0274
2026-02-23 00:41:27.950,0.0825,0.0068,1.0312,1.0346
2026-02-23 00:41:28.003,0.0830,0.0112,1.0283,1.0317
2026-02-23 00:41:28.056,0.0791,0.0049,1.0386,1.0416
2026-02-23 00:41:28.110,0.0854,0.0029,1.0400,1.0435
2026-02-23 00:41:28.163,0.0815,0.0059,1.0225,1.0257
2026-02-23 00:41:28.216,0.0801,0.0068,1.0400,1.0431
2026-02-23 00:41:28.269,0.0796,0.0034,1.0298,1.0329
2026-02-23 00:41:28.323,0.0781,0.0083,1.0308,1.0338
2026-02-23 00:41:28.376,0.0791,0.0068,1.0229,1.0260
2026-02-23 00:41:28.429,0.0835,0.0078,1.0210,1.0244
2026-02-23 00:41:28.482,0.0845,0.0078,1.0259,1.0294
2026-02-23 00:41:28.535,0.0835,0.0059,1.0312,1.0346
2026-02-23 00:41:28.589,0.0845,0.0083,1.0327,1.0362
2026-02-23 00:41:28.642,0.0825,0.0034,1.0327,1.0360
2026-02-23 00:41:28.695,0.0884,0.0073,1.0225,1.0263
2026-02-23 00:41:28.748,0.0820,0.0049,1.0259,1.0292
2026-02-23 00:41:28.802,0.0811,0.0005,1.0254,1.0286
2026-02-23 00:41:28.855,0.0820,0.0024,1.0273,1.0306
2026-02-23 00:41:28.908,0.0845,-0.0005,1.0386,1.0420
2026-02-23 00:41:28.961,0.0811,0.0049,1.0254,1.0286
2026-02-23 00:41:29.015,0.0820,0.0005,1.0225,1.0257
2026-02-23 00:41:29.068,0.0835,0.0063,1.0283,1.0317
2026-02-23 00:41:29.121,0.0771,0.0083,1.0249,1.0278
2026-02-23 00:41:29.174,0.0830,0.0049,1.0308,1.0341
2026-02-23 00:41:29.227,0.0806,0.0029,1.0205,1.0237
2026-02-23 00:41:29.281,0.0815,0.0024,1.0342,1.0374
2026-02-23 00:41:29.334,0.0796,0.0083,1.0269,1.0300
2026-02-23 00:41:29.387,0.0796,0.0015,1.0293,1.0324
2026-02-23 00:41:29.440,0.0820,0.0063,1.0229,1.0263
2026-02-23 00:41:29.494,0.0830,0.0088,1.0381,1.0414
2026-02-23 00:41:29.547,0.0825,0.0088,1.0312,1.0346
2026-02-23 00:41:29.600,0.0796,0.0049,1.0278,1.0309
2026-02-23 00:41:29.653,0.0903,0.0063,1.0308,1.0347
2026-02-23 00:41:29.707,0.0815,0.0059,1.0293,1.0325
2026-02-23 00:41:29.760,0.0762,0.0068,1.0234,1.0263
2026-02-23 00:41:29.813,0.0796,0.0112,1.0264,1.0295
2026-02-23 00:41:29.866,0.0786,0.0024,1.0293,1.0323
2026-02-23 00:41:29.919,0.0815,0.0054,1.0220,1.0252
2026-02-23 00:41:29.972,0.0879,0.0171,1.0210,1.0249
2026-02-23 00:41:30.025,0.0806,0.0049,1.0322,1.0354
2026-02-23 00:41:30.078,0.0815,0.0063,1.0337,1.0369
2026-02-23 00:41:30.132,0.0850,0.0059,1.0352,1.0387
2026-02-23 00:41:30.185,0.0845,0.0078,1.0249,1.0284
2026-02-23 00:41:30.238,0.0854,0.0063,1.0283,1.0319
2026-02-23 00:41:30.291,0.0811,0.0093,1.0273,1.0306
2026-02-23 00:41:30.344,0.0723,0.0059,1.0220,1.0245
2026-02-23 00:41:30.397,0.0854,0.0039,1.0273,1.0309
2026-02-23 00:41:30.450,0.0850,0.0063,1.0347,1.0382
2026-02-23 00:41:30.503,0.0786,0.0049,1.0308,1.0338
2026-02-23 00:41:30.556,0.0806,0.0122,1.0273,1.0306
2026-02-23 00:41:30.609,0.0806,0.0029,1.0278,1.0310
2026-02-23 00:41:30.663,0.0811,0.0068,1.0312,1.0345
2026-02-23 00:41:30.716,0.0801,0.0073,1.0386,1.0417
2026-02-23 00:41:30.769,0.0845,0.0063,1.0220,1.0255
2026-02-23 00:41:30.822,0.0854,0.0088,1.0312,1.0348
2026-02-23 00:41:30.875,0.0806,0.0078,1.0288,1.0320
2026-02-23 00:41:30.928,0.0854,0.0098,1.0332,1.0368
2026-02-23 00:41:30.981,0.0801,0.0059,1.0352,1.0383
2026-02-23 00:41:31.034,0.0806,0.0073,1.0342,1.0373
2026-02-23 00:41:31.087,0.0791,0.0059,1.0288,1.0319
2026-02-23 00:41:31.140,0.0815,0.0029,1.0210,1.0243
2026-02-23 00:41:31.193,0.0903,0.0029,1.0288,1.0328
2026-02-23 00:41:31.246,0.0840,0.0088,1.0322,1.0357
2026-02-23 00:41:31.299,0.0801,0.0034,1.0308,1.0339
2026-02-23 00:41:31.353,0.0830,0.0044,1.0239,1.0273
2026-02-23 00:41:31.406,0.0825,0.0059,1.0205,1.0239
2026-02-23 00:41:31.459,0.0854,0.0059,1.0356,1.0392
2026-02-23 00:41:31.512,0.0796,0.0059,1.0303,1.0334
2026-02-23 00:41:31.565,0.0786,0.0132,1.0264,1.0295
2026-02-23 00:41:31.618,0.0859,0.0054,1.0332,1.0368
2026-02-23 00:41:31.671,0.0825,0.0059,1.0288,1.0321
2026-02-23 00:41:31.724,0.0845,0.0093,1.0264,1.0299
2026-02-23 00:41:31.777,0.0830,0.0029,1.0293,1.0326
2026-02-23 00:41:31.830,0.0840,0.0029,1.0298,1.0332
2026-02-23 00:41:31.887,0.0859,0.0054,1.0190,1.0227
2026-02-23 00:41:31.940,0.0864,0.0059,1.0293,1.0329
2026-02-23 00:41:31.993,0.0815,0.0059,1.0269,1.0301
2026-02-23 00:41:32.046,0.0786,0.0049,1.0332,1.0362
2026-02-23 00:41:32.101,0.0820,0.0068,1.0337,1.0370
2026-02-23 00:41:32.155,0.0889,0.0049,1.0317,1.0356
2026-02-23 00:41:32.208,0.0859,0.0034,1.0288,1.0324
2026-02-23 00:41:32.261,0.0859,0.0083,1.0342,1.0378
2026-02-23 00:41:32.314,0.0820,0.0059,1.0288,1.0321
2026-02-23 00:41:32.367,0.0840,0.0112,1.0146,1.0182
2026-02-23 00:41:32.420,0.0820,0.0078,1.0327,1.0360
2026-02-23 00:41:32.473,0.0776,0.0068,1.0337,1.0366
2026-02-23 00:41:32.527,0.0859,0.0054,1.0352,1.0387
2026-02-23 00:41:32.580,0.0967,0.0195,1.0259,1.0306
2026-02-23 00:41:32.633,0.0820,0.0059,1.0415,1.0447
2026-02-23 00:41:32.686,0.0854,0.0034,1.0308,1.0343
2026-02-23 00:41:32.739,0.0850,0.0073,1.0259,1.0294
2026-02-23 00:41:32.792,0.0859,0.0068,1.0303,1.0339
2026-02-23 00:41:32.845,0.0815,0.0029,1.0322,1.0354
2026-02-23 00:41:32.898,0.0835,0.0068,1.0298,1.0332
2026-02-23 00:41:32.951,0.0776,0.0020,1.0244,1.0274
2026-02-23 00:41:33.004,0.0854,0.0044,1.0264,1.0299
2026-02-23 00:41:33.058,0.0791,0.0063,1.0327,1.0358
2026-02-23 00:41:33.111,0.0859,0.0049,1.0347,1.0382
2026-02-23 00:41:33.164,0.0791,0.0029,1.0264,1.0294
2026-02-23 00:41:33.217,0.0835,0.0088,1.0361,1.0395
2026-02-23 00:41:33.270,0.0840,0.0024,1.0327,1.0361
2026-02-23 00:41:33.323,0.0796,0.0044,1.0264,1.0295
2026-02-23 00:41:33.376,0.0796,0.0073,1.0308,1.0339
2026-02-23 00:41:33.429,0.0835,0.0088,1.0244,1.0278
2026-02-23 00:41:33.482,0.0850,0.0024,1.0347,1.0382
2026-02-23 00:41:33.535,0.0825,0.0078,1.0303,1.0336
2026-02-23 00:41:33.588,0.0767,0.0049,1.0269,1.0297
2026-02-23 00:41:33.641,0.0835,0.0063,1.0308,1.0342
2026-02-23 00:41:33.694,0.0811,0.0078,1.0288,1.0320
2026-02-23 00:41:33.747,0.0786,0.0049,1.0288,1.0318
2026-02-23 00:41:33.800,0.0825,0.0049,1.0312,1.0346
2026-02-23 00:41:33.853,0.0859,0.0000,1.0308,1.0343
2026-02-23 00:41:33.906,0.0791,0.0103,0.9985,1.0017
2026-02-23 00:41:33.959,0.0762,0.0049,1.0376,1.0404
2026-02-23 00:41:34.012,0.0786,0.0005,1.0298,1.0328
2026-02-23 00:41:34.065,0.0830,0.0029,1.0376,1.0409
2026-02-23 00:41:34.118,0.0879,0.0059,1.0249,1.0287
2026-02-23 00:41:34.171,0.0854,0.0078,1.0269,1.0304
2026-02-23 00:41:34.224,0.0820,0.0029,1.0259,1.0292
2026-02-23 00:41:34.277,0.0869,0.0059,1.0322,1.0359
2026-02-23 00:41:34.331,0.0854,0.0054,1.0322,1.0358
2026-02-23 00:41:34.385,0.0776,0.0107,1.0293,1.0323
2026-02-23 00:41:34.438,0.0781,0.0029,1.0342,1.0371
2026-02-23 00:41:34.491,0.0815,0.0088,1.0337,1.0369
2026-02-23 00:41:34.544,0.0845,0.0034,1.0298,1.0332
2026-02-23 00:41:34.597,0.0811,0.0049,1.0283,1.0315
2026-02-23 00:41:34.651,0.0781,0.0088,1.0278,1.0308
2026-02-23 00:41:34.704,0.0845,0.0029,1.0312,1.0347
2026-02-23 00:41:34.757,0.0859,0.0073,1.0317,1.0353
2026-02-23 00:41:34.810,0.0845,0.0073,1.0283,1.0318
2026-02-23 00:41:34.863,0.0806,0.0029,1.0298,1.0329
2026-02-23 00:41:34.916,0.0801,0.0029,1.0210,1.0241
2026-02-23 00:41:34.970,0.0840,0.0049,1.0273,1.0308
2026-02-23 00:41:35.023,0.0835,0.0054,1.0298,1.0332
2026-02-23 00:41:35.076,0.0850,0.0044,1.0293,1.0328
2026-02-23 00:41:35.130,0.0845,0.0054,1.0278,1.0313
2026-02-23 00:41:35.183,0.0811,0.0068,1.0205,1.0237
2026-02-23 00:41:35.236,0.0845,0.0059,1.0278,1.0313
2026-02-23 00:41:35.289,0.0820,0.0049,1.0249,1.0282
2026-02-23 00:41:35.343,0.0811,0.0088,1.0254,1.0286
2026-02-23 00:41:35.396,0.0835,0.0059,1.0322,1.0356
2026-02-23 00:41:35.449,0.0820,0.0078,1.0322,1.0355
2026-02-23 00:41:35.502,0.0820,0.0049,1.0337,1.0370
2026-02-23 00:41:35.556,0.0796,0.0049,1.0361,1.0392
2026-02-23 00:41:35.609,0.0820,0.0059,1.0298,1.0331
2026-02-23 00:41:35.662,0.0840,0.0044,1.0327,1.0361
2026-02-23 00:41:35.715,0.0840,0.0049,1.0366,1.0400
2026-02-23 00:41:35.769,0.0811,0.0063,1.0190,1.0223
2026-02-23 00:41:35.822,0.0845,0.0103,1.0347,1.0382
2026-02-23 00:41:35.875,0.0806,0.0024,1.0337,1.0368
2026-02-23 00:41:35.928,0.0845,0.0063,1.0244,1.0279
2026-02-23 00:41:35.981,0.0820,0.0024,1.0356,1.0389
2026-02-23 00:41:36.034,0.0840,0.0029,1.0317,1.0352
2026-02-23 00:41:36.087,0.0815,0.0054,1.0229,1.0262
2026-02-23 00:41:36.140,0.0845,0.0059,1.0361,1.0396
2026-02-23 00:41:36.193,0.0830,0.0015,1.0264,1.0297
2026-02-23 00:41:36.246,0.0815,0.0049,1.0308,1.0340
2026-02-23 00:41:36.299,0.0845,0.0044,1.0254,1.0289
2026-02-23 00:41:36.353,0.0806,0.0103,1.0347,1.0379
2026-02-23 00:41:36.406,0.0835,0.0029,1.0244,1.0278
2026-02-23 00:41:36.459,0.0806,0.0063,1.0410,1.0441
2026-02-23 00:41:36.512,0.0811,0.0044,1.0293,1.0325
2026-02-23 00:41:36.565,0.0806,0.0088,1.0322,1.0354
2026-02-23 00:41:36.618,0.0825,0.0054,1.0234,1.0268
2026-02-23 00:41:36.671,0.0806,0.0068,1.0288,1.0320
2026-02-23 00:41:36.724,0.0845,0.0083,1.0215,1.0250
2026-02-23 00:41:36.778,0.0850,0.0034,1.0234,1.0270
2026-02-23 00:41:36.831,0.0840,0.0073,1.0317,1.0352
2026-02-23 00:41:36.884,0.0835,0.0068,1.0239,1.0273
2026-02-23 00:41:36.937,0.0825,0.0054,1.0264,1.0297
2026-02-23 00:41:36.990,0.0806,0.0083,1.0347,1.0378
2026-02-23 00:41:37.043,0.0811,0.0083,1.0278,1.0311
2026-02-23 00:41:37.096,0.0845,0.0054,1.0220,1.0255
2026-02-23 00:41:37.149,0.0845,0.0010,1.0308,1.0342
2026-02-23 00:41:37.202,0.0830,0.0054,1.0254,1.0288
2026-02-23 00:41:37.256,0.0850,0.0034,1.0312,1.0347
2026-02-23 00:41:37.309,0.0791,0.0068,1.0278,1.0309
2026-02-23 00:41:37.362,0.0840,0.0054,1.0288,1.0322
2026-02-23 00:41:37.415,0.0801,0.0044,1.0342,1.0373
2026-02-23 00:41:37.468,0.0786,0.0010,1.0273,1.0303
2026-02-23 00:41:37.521,0.0825,0.0049,1.0317,1.0350
2026-02-23 00:41:37.574,0.0854,0.0044,1.0234,1.0270
2026-02-23 00:41:37.627,0.0815,0.0103,1.0259,1.0292
2026-02-23 00:41:37.680,0.0801,0.0078,1.0327,1.0358
2026-02-23 00:41:37.733,0.0874,0.0073,1.0269,1.0306
2026-02-23 00:41:37.786,0.0796,0.0107,1.0264,1.0295
2026-02-23 00:41:37.839,0.0845,0.0044,1.0269,1.0303
2026-02-23 00:41:37.893,0.0830,0.0054,1.0298,1.0331
2026-02-23 00:41:37.946,0.0811,0.0068,1.0269,1.0301
2026-02-23 00:41:37.999,0.0840,0.0088,1.0264,1.0298
2026-02-23 00:41:38.052,0.0840,0.0049,1.0303,1.0337
2026-02-23 00:41:38.105,0.0791,0.0044,1.0278,1.0309
2026-02-23 00:41:38.158,0.0825,0.0059,1.0254,1.0287
2026-02-23 00:41:38.212,0.0845,0.0039,1.0259,1.0294
2026-02-23 00:41:38.265,0.0796,0.0068,1.0225,1.0256
2026-02-23 00:41:38.319,0.0840,0.0063,1.0259,1.0293
2026-02-23 00:41:38.372,0.0859,0.0059,1.0264,1.0300
2026-02-23 00:41:38.425,0.0796,0.0068,1.0234,1.0266
2026-02-23 00:41:38.479,0.0830,0.0063,1.0312,1.0346
2026-02-23 00:41:38.532,0.0811,0.0063,1.0327,1.0359
2026-02-23 00:41:38.585,0.0811,0.0068,1.0288,1.0320
2026-02-23 00:41:38.638,0.0845,0.0049,1.0273,1.0308
2026-02-23 00:41:38.691,0.0806,0.0020,1.0259,1.0290
2026-02-23 00:41:38.744,0.0815,0.0073,1.0312,1.0345
2026-02-23 00:41:38.797,0.0830,0.0088,1.0312,1.0346
2026-02-23 00:41:38.850,0.0811,0.0059,1.0244,1.0276
2026-02-23 00:41:38.903,0.0854,0.0039,1.0347,1.0382
2026-02-23 00:41:38.956,0.0830,0.0088,1.0278,1.0312
2026-02-23 00:41:39.009,0.0854,0.0098,1.0229,1.0266
2026-02-23 00:41:39.062,0.0830,0.0059,1.0356,1.0390
2026-02-23 00:41:39.116,0.0835,0.0078,1.0312,1.0347
2026-02-23 00:41:39.169,0.0864,0.0059,1.0356,1.0393
2026-02-23 00:41:39.222,0.0840,0.0054,1.0269,1.0303
2026-02-23 00:41:39.275,0.0850,0.0078,1.0288,1.0323
2026-02-23 00:41:39.328,0.0830,0.0098,1.0303,1.0337
2026-02-23 00:41:39.383,0.0835,0.0044,1.0288,1.0322
2026-02-23 00:41:39.436,0.0796,0.0093,1.0249,1.0280
2026-02-23 00:41:39.489,0.0811,0.0029,1.0220,1.0252
2026-02-23 00:41:39.542,0.0825,0.0068,1.0229,1.0263
2026-02-23 00:41:39.595,0.0835,-0.0010,1.0322,1.0356
2026-02-23 00:41:39.648,0.0830,0.0107,1.0278,1.0312
2026-02-23 00:41:39.701,0.0723,0.0044,1.0200,1.0226
2026-02-23 00:41:39.754,0.0811,0.0112,1.0396,1.0428
2026-02-23 00:41:39.807,0.0791,0.0034,1.0288,1.0319
2026-02-23 00:41:39.861,0.0801,0.0146,1.0205,1.0237
2026-02-23 00:41:39.914,0.0840,0.0024,1.0322,1.0356
2026-02-23 00:41:39.967,0.0786,0.0044,1.0308,1.0338
2026-02-23 00:41:40.020,0.0806,0.0068,1.0244,1.0276
2026-02-23 00:41:40.073,0.0825,0.0059,1.0366,1.0399
2026-02-23 00:41:40.126,0.0801,0.0029,1.0273,1.0305
2026-02-23 00:41:40.180,0.0767,0.0073,1.0249,1.0278
2026-02-23 00:41:40.233,0.0835,0.0073,1.0278,1.0312
2026-02-23 00:41:40.287,0.0835,0.0049,1.0210,1.0244
2026-02-23 00:41:40.340,0.0830,0.0020,1.0337,1.0370
2026-02-23 00:41:40.394,0.0806,0.0049,1.0234,1.0266
2026-02-23 00:41:40.447,0.0820,0.0049,1.0342,1.0374
2026-02-23 00:41:40.501,0.0791,0.0063,1.0308,1.0338
2026-02-23 00:41:40.554,0.0801,0.0078,1.0239,1.0271
2026-02-23 00:41:40.607,0.0825,0.0029,1.0244,1.0277
2026-02-23 00:41:40.661,0.0845,0.0063,1.0332,1.0367
2026-02-23 00:41:40.714,0.0811,0.0044,1.0269,1.0301
2026-02-23 00:41:40.768,0.0786,0.0049,1.0210,1.0240
2026-02-23 00:41:40.822,0.0845,0.0054,1.0312,1.0347
2026-02-23 00:41:40.876,0.0845,0.0044,1.0273,1.0308
2026-02-23 00:41:40.930,0.0854,0.0063,1.0283,1.0319
2026-02-23 00:41:40.984,0.0840,0.0054,1.0239,1.0274
2026-02-23 00:41:41.037,0.0840,0.0054,1.0273,1.0308
2026-02-23 00:41:41.091,0.0820,0.0073,1.0317,1.0350
2026-02-23 00:41:41.145,0.0840,0.0054,1.0288,1.0322
2026-02-23 00:41:41.200,0.0835,0.0068,1.0312,1.0346
2026-02-23 00:41:41.255,0.0815,0.0078,1.0322,1.0355
2026-02-23 00:41:41.308,0.0762,0.0059,1.0249,1.0277
2026-02-23 00:41:41.361,0.0820,0.0073,1.0376,1.0409
2026-02-23 00:41:41.415,0.0801,0.0068,1.0381,1.0412
2026-02-23 00:41:41.468,0.0835,0.0093,1.0298,1.0332
2026-02-23 00:41:41.521,0.0845,0.1230,1.0283,1.0391
2026-02-23 00:41:41.575,0.0801,0.0059,1.0312,1.0344
2026-02-23 00:41:41.628,0.0806,0.0068,1.0293,1.0325
2026-02-23 00:41:41.682,0.0845,0.0054,1.0298,1.0333
2026-02-23 00:41:41.735,0.0776,0.0054,1.0264,1.0293
2026-02-23 00:41:41.788,0.0864,0.0059,1.0298,1.0334
2026-02-23 00:41:41.842,0.0869,0.0049,1.0303,1.0339
2026-02-23 00:41:41.895,0.0830,0.0088,1.0283,1.0317
2026-02-23 00:41:41.948,0.0811,0.0059,1.0269,1.0301
2026-02-23 00:41:42.002,0.0786,0.0088,1.0327,1.0357
2026-02-23 00:41:42.055,0.0781,0.0039,1.0298,1.0328
2026-02-23 00:41:42.108,0.0815,0.0034,1.0342,1.0374
2026-02-23 00:41:42.162,0.0830,0.0088,1.0254,1.0288
2026-02-23 00:41:42.215,0.0815,0.0083,1.0342,1.0374
2026-02-23 00:41:42.268,0.0796,0.0083,1.0298,1.0329
2026-02-23 00:41:42.322,0.0811,0.0049,1.0312,1.0344
2026-02-23 00:41:42.375,0.0835,0.0063,1.0293,1.0327
2026-02-23 00:41:42.428,0.0825,0.0078,1.0293,1.0326
2026-02-23 00:41:42.481,0.0820,0.0044,1.0269,1.0301
2026-02-23 00:41:42.535,0.0825,0.0054,1.0278,1.0312
2026-02-23 00:41:42.588,0.0859,0.0063,1.0244,1.0280
2026-02-23 00:41:42.642,0.0840,0.0054,1.0244,1.0279
2026-02-23 00:41:42.695,0.0835,0.0039,1.0308,1.0341
2026-02-23 00:41:42.748,0.0830,0.0034,1.0278,1.0312
2026-02-23 00:41:42.802,0.0806,0.0049,1.0303,1.0334
2026-02-23 00:41:42.855,0.0791,0.0063,1.0303,1.0333
2026-02-23 00:41:42.908,0.0801,0.0039,1.0308,1.0339
2026-02-23 00:41:42.962,0.0815,0.0063,1.0283,1.0316
2026-02-23 00:41:43.015,0.0820,0.0083,1.0308,1.0341
2026-02-23 00:41:43.068,0.0811,0.0054,1.0317,1.0349
2026-02-23 00:41:43.122,0.0820,0.0107,1.0269,1.0302
2026-02-23 00:41:43.175,0.0840,0.0083,1.0386,1.0420
2026-02-23 00:41:43.228,0.0835,0.0078,1.0225,1.0259
2026-02-23 00:41:43.281,0.0845,0.0068,1.0317,1.0352
2026-02-23 00:41:43.335,0.0840,0.0039,1.0225,1.0259
2026-02-23 00:41:43.388,0.0796,0.0068,1.0269,1.0300
2026-02-23 00:41:43.441,0.0830,0.0059,1.0337,1.0370
2026-02-23 00:41:43.494,0.0840,0.0034,1.0269,1.0303
2026-02-23 00:41:43.548,0.0796,0.0044,1.0312,1.0343
2026-02-23 00:41:43.601,0.0811,0.0039,1.0322,1.0354
2026-02-23 00:41:43.654,0.0830,0.0044,1.0312,1.0346
2026-02-23 00:41:43.708,0.0820,0.0020,1.0234,1.0267
2026-02-23 00:41:43.761,0.0845,0.0005,1.0308,1.0342
2026-02-23 00:41:43.815,0.0845,0.0034,1.0347,1.0381
2026-02-23 00:41:43.868,0.0864,0.0098,1.0244,1.0281
2026-02-23 00:41:43.921,0.0752,0.0063,1.0278,1.0306
2026-02-23 00:41:43.974,0.0811,0.0088,1.0347,1.0379
2026-02-23 00:41:44.028,0.0786,0.0093,1.0269,1.0299
2026-02-23 00:41:44.081,0.0825,0.0063,1.0298,1.0331
2026-02-23 00:41:44.135,0.0791,0.0068,1.0322,1.0353
2026-02-23 00:41:44.188,0.0835,0.0103,1.0229,1.0264
2026-02-23 00:41:44.241,0.0815,0.0083,1.0425,1.0457
2026-02-23 00:41:44.295,0.0845,0.0093,1.0259,1.0294
2026-02-23 00:41:44.348,0.0835,0.0088,1.0322,1.0356
2026-02-23 00:41:44.401,0.0815,0.0073,1.0308,1.0340
2026-02-23 00:41:44.454,0.0781,0.0024,1.0259,1.0289
2026-02-23 00:41:44.508,0.0767,0.0059,1.0249,1.0278
2026-02-23 00:41:44.561,0.0825,0.0024,1.0269,1.0302
2026-02-23 00:41:44.615,0.0850,0.0068,1.0259,1.0294
2026-02-23 00:41:44.668,0.0815,0.0068,1.0278,1.0311
2026-02-23 00:41:44.721,0.0835,0.0088,1.0269,1.0303
2026-02-23 00:41:44.775,0.0879,0.0078,1.0215,1.0253
2026-02-23 00:41:44.828,0.0771,0.0044,1.0234,1.0264
2026-02-23 00:41:44.885,0.0767,0.0068,1.0293,1.0322
2026-02-23 00:41:44.938,0.0820,0.0054,1.0322,1.0355
2026-02-23 00:41:44.992,0.0786,0.0063,1.0312,1.0343
2026-02-23 00:41:45.046,0.0801,0.0073,1.0317,1.0349
2026-02-23 00:41:45.100,0.0801,0.0107,1.0293,1.0325
2026-02-23 00:41:45.153,0.0835,0.0083,1.0347,1.0381
2026-02-23 00:41:45.207,0.0786,0.0063,1.0288,1.0318
2026-02-23 00:41:45.260,0.0820,0.0063,1.0259,1.0292
2026-02-23 00:41:45.314,0.0801,0.0078,1.0303,1.0334
2026-02-23 00:41:45.368,0.0845,0.0054,1.0312,1.0347
2026-02-23 00:41:45.421,0.0835,0.0039,1.0371,1.0405
2026-02-23 00:41:45.475,0.0854,0.0078,1.0342,1.0377
2026-02-23 00:41:45.528,0.0762,0.0029,1.0269,1.0297
2026-02-23 00:41:45.583,0.0869,0.0078,1.0327,1.0364
2026-02-23 00:41:45.636,0.0825,0.0098,1.0278,1.0312
2026-02-23 00:41:45.690,0.0806,0.0059,1.0225,1.0256
2026-02-23 00:41:45.743,0.0820,0.0117,1.0337,1.0370
2026-02-23 00:41:45.798,0.0801,0.0073,1.0342,1.0373
2026-02-23 00:41:45.852,0.0820,0.0044,1.0288,1.0321
2026-02-23 00:41:45.905,0.0801,0.0063,1.0259,1.0290
2026-02-23 00:41:45.958,0.0796,0.0034,1.0308,1.0338
2026-02-23 00:41:46.012,0.0840,0.0049,1.0273,1.0308
2026-02-23 00:41:46.065,0.0811,0.0054,1.0293,1.0325
2026-02-23 00:41:46.119,0.0820,0.0049,1.0342,1.0374
2026-02-23 00:41:46.172,0.0859,0.0029,1.0283,1.0319
2026-02-23 00:41:46.225,0.0820,0.0044,1.0308,1.0340
2026-02-23 00:41:46.279,0.0815,0.0088,1.0254,1.0287
2026-02-23 00:41:46.333,0.0801,0.0098,1.0303,1.0334
2026-02-23 00:41:46.386,0.0820,0.0078,1.0303,1.0336
2026-02-23 00:41:46.440,0.0786,0.0063,1.0303,1.0333
2026-02-23 00:41:46.494,0.0835,0.0034,1.0288,1.0322
2026-02-23 00:41:46.548,0.0811,0.0083,1.0264,1.0296
2026-02-23 00:41:46.602,0.0806,0.0083,1.0259,1.0291
2026-02-23 00:41:46.655,0.0781,0.0068,1.0249,1.0279
2026-02-23 00:41:46.709,0.0854,0.0078,1.0298,1.0334
2026-02-23 00:41:46.765,0.0815,0.0083,1.0273,1.0306
2026-02-23 00:41:46.819,0.0825,0.0039,1.0317,1.0350
2026-02-23 00:41:46.873,0.0864,0.0107,1.0225,1.0262
2026-02-23 00:41:46.926,0.0796,0.0049,1.0298,1.0329
2026-02-23 00:41:46.982,0.0825,0.0059,1.0308,1.0341
2026-02-23 00:41:47.039,0.0845,0.0103,1.0322,1.0357
2026-02-23 00:41:47.092,0.0806,0.0054,1.0288,1.0320
2026-02-23 00:41:47.146,0.0830,0.0093,1.0269,1.0302
2026-02-23 00:41:47.199,0.0806,0.0024,1.0278,1.0310
2026-02-23 00:41:47.252,0.0815,0.0112,1.0200,1.0233
2026-02-23 00:41:47.305,0.0811,0.0015,1.0288,1.0320
2026-02-23 00:41:47.358,0.0825,0.0049,1.0332,1.0365
2026-02-23 00:41:47.412,0.0815,0.0059,1.0210,1.0243
2026-02-23 00:41:47.465,0.0811,0.0112,1.0312,1.0345
2026-02-23 00:41:47.518,0.0889,0.0068,1.0312,1.0351
2026-02-23 00:41:47.572,0.0840,0.0049,1.0308,1.0342
2026-02-23 00:41:47.625,0.0835,0.0049,1.0288,1.0322
2026-02-23 00:41:47.678,0.0840,0.0049,1.0312,1.0347
2026-02-23 00:41:47.732,0.0811,0.0078,1.0342,1.0374
2026-02-23 00:41:47.785,0.0825,0.0020,1.0254,1.0287
2026-02-23 00:41:47.838,0.0830,0.0083,1.0396,1.0429
2026-02-23 00:41:47.891,0.0864,0.0068,1.0303,1.0339
2026-02-23 00:41:47.944,0.0845,0.0044,1.0278,1.0313
2026-02-23 00:41:47.997,0.0820,0.0039,1.0264,1.0296
2026-02-23 00:41:48.050,0.0815,0.0063,1.0273,1.0306
2026-02-23 00:41:48.103,0.0859,0.0049,1.0312,1.0348
2026-02-23 00:41:48.156,0.0815,0.0034,1.0254,1.0286
2026-02-23 00:41:48.209,0.0845,0.0078,1.0278,1.0313
2026-02-23 00:41:48.263,0.0825,0.0054,1.0249,1.0282
2026-02-23 00:41:48.316,0.0801,0.0029,1.0283,1.0314
2026-02-23 00:41:48.369,0.0864,0.0054,1.0264,1.0300
2026-02-23 00:41:48.422,0.0859,0.0059,1.0288,1.0324
2026-02-23 00:41:48.475,0.0791,0.0059,1.0293,1.0323
2026-02-23 00:41:48.528,0.0820,0.0059,1.0298,1.0331
2026-02-23 00:41:48.581,0.0806,0.0088,1.0317,1.0349
2026-02-23 00:41:48.634,0.0796,0.0122,1.0234,1.0266
2026-02-23 00:41:48.687,0.0806,0.0034,1.0337,1.0368
2026-02-23 00:41:48.740,0.0786,0.0088,1.0298,1.0328
2026-02-23 00:41:48.793,0.0845,0.0049,1.0283,1.0318
2026-02-23 00:41:48.846,0.0835,0.0059,1.0249,1.0283
2026-02-23 00:41:48.899,0.0825,0.0034,1.0220,1.0253
2026-02-23 00:41:48.953,0.0806,0.0068,1.0303,1.0334
2026-02-23 00:41:49.006,0.0811,0.0049,1.0210,1.0242
2026-02-23 00:41:49.059,0.0801,0.0073,1.0332,1.0363
2026-02-23 00:41:49.112,0.0879,0.0044,1.0293,1.0331
2026-02-23 00:41:49.165,0.0825,0.0034,1.0317,1.0350
2026-02-23 00:41:49.218,0.0815,0.0068,1.0293,1.0325
2026-02-23 00:41:49.271,0.0791,0.0024,1.0332,1.0362
2026-02-23 00:41:49.324,0.0864,0.0039,1.0254,1.0290
2026-02-23 00:41:49.377,0.0830,0.0024,1.0322,1.0356
2026-02-23 00:41:49.430,0.0781,0.0034,1.0264,1.0293
2026-02-23 00:41:49.483,0.0815,0.0044,1.0273,1.0306
2026-02-23 00:41:49.536,0.0825,0.0088,1.0327,1.0360
2026-02-23 00:41:49.589,0.0869,0.0039,1.0244,1.0281
2026-02-23 00:41:49.642,0.0820,0.0054,1.0303,1.0335
2026-02-23 00:41:49.695,0.0806,0.0024,1.0234,1.0266
2026-02-23 00:41:49.748,0.0869,0.0073,1.0322,1.0359
2026-02-23 00:41:49.801,0.0854,0.0049,1.0225,1.0260
2026-02-23 00:41:49.854,0.0781,0.0039,1.0288,1.0318
2026-02-23 00:41:49.907,0.0830,0.0063,1.0225,1.0258
2026-02-23 00:41:49.960,0.0835,0.0083,1.0244,1.0278
2026-02-23 00:41:50.013,0.0825,0.0054,1.0332,1.0365
2026-02-23 00:41:50.066,0.0850,0.0024,1.0249,1.0284
2026-02-23 00:41:50.119,0.0850,0.0029,1.0396,1.0430
2026-02-23 00:41:50.173,0.0762,0.0044,1.0259,1.0287
2026-02-23 00:41:50.226,0.0815,0.0029,1.0283,1.0316
2026-02-23 00:41:50.279,0.0820,0.0049,1.0200,1.0233
2026-02-23 00:41:50.332,0.0840,0.0044,1.0269,1.0303
2026-02-23 00:41:50.385,0.0830,0.0073,1.0225,1.0259
2026-02-23 00:41:50.438,0.0811,0.0029,1.0337,1.0369
2026-02-23 00:41:50.491,0.0825,0.0049,1.0229,1.0263
2026-02-23 00:41:50.544,0.0845,0.0073,1.0254,1.0289
2026-02-23 00:41:50.597,0.0840,0.0068,1.0229,1.0264
2026-02-23 00:41:50.650,0.0825,0.0054,1.0308,1.0341
2026-02-23 00:41:50.703,0.0820,0.0059,1.0298,1.0331
2026-02-23 00:41:50.756,0.0801,0.0044,1.0332,1.0363
2026-02-23 00:41:50.810,0.0854,0.0054,1.0259,1.0294
2026-02-23 00:41:50.863,0.0840,0.0024,1.0288,1.0322
2026-02-23 00:41:50.916,0.0801,0.0073,1.0220,1.0251
2026-02-23 00:41:50.969,0.0825,0.0059,1.0332,1.0365
2026-02-23 00:41:51.022,0.0796,0.0024,1.0298,1.0329
2026-02-23 00:41:51.075,0.0786,0.0039,1.0259,1.0289
2026-02-23 00:41:51.128,0.0825,0.0073,1.0273,1.0307
2026-02-23 00:41:51.181,0.0806,0.0005,1.0322,1.0354
2026-02-23 00:41:51.234,0.0840,0.0054,1.0278,1.0313
2026-02-23 00:41:51.287,0.0801,0.0068,1.0234,1.0266
2026-02-23 00:41:51.340,0.0806,0.0044,1.0288,1.0320
2026-02-23 00:41:51.394,0.0786,0.0000,1.0312,1.0342
2026-02-23 00:41:51.447,0.0811,0.0063,1.0337,1.0369
2026-02-23 00:41:51.500,0.0815,0.0049,1.0293,1.0325
2026-02-23 00:41:51.553,0.0825,0.0044,1.0293,1.0326
2026-02-23 00:41:51.606,0.0811,0.0049,1.0259,1.0291
2026-02-23 00:41:51.659,0.0854,0.0039,1.0386,1.0421
2026-02-23 00:41:51.712,0.0859,0.0059,1.0254,1.0290
2026-02-23 00:41:51.765,0.0791,0.0044,1.0278,1.0309
2026-02-23 00:41:51.818,0.0791,0.0039,1.0317,1.0348
2026-02-23 00:41:51.871,0.0830,0.0059,1.0259,1.0292
2026-02-23 00:41:51.924,0.0869,0.0039,1.0293,1.0330
2026-02-23 00:41:51.977,0.0781,0.0093,1.0391,1.0420
2026-02-23 00:41:52.030,0.0820,0.0044,1.0239,1.0272
2026-02-23 00:41:52.084,0.0815,0.0029,1.0249,1.0281
2026-02-23 00:41:52.137,0.0815,0.0083,1.0234,1.0267
2026-02-23 00:41:52.190,0.0820,0.0073,1.0269,1.0302
2026-02-23 00:41:52.243,0.0854,0.0068,1.0269,1.0304
2026-02-23 00:41:52.296,0.0820,0.0068,1.0312,1.0345
2026-02-23 00:41:52.349,0.0825,0.0063,1.0293,1.0326
2026-02-23 00:41:52.402,0.0742,0.0034,1.0229,1.0256
2026-02-23 00:41:52.455,0.0815,0.0063,1.0283,1.0316
2026-02-23 00:41:52.508,0.0830,0.0068,1.0332,1.0366
2026-02-23 00:41:52.561,0.0781,0.0054,1.0288,1.0318
2026-02-23 00:41:52.614,0.0845,0.0063,1.0229,1.0265
2026-02-23 00:41:52.667,0.0825,0.0059,1.0332,1.0365
2026-02-23 00:41:52.720,0.0830,0.0044,1.0293,1.0326
2026-02-23 00:41:52.773,0.0811,0.0059,1.0259,1.0291
2026-02-23 00:41:52.827,0.0806,0.0083,1.0278,1.0310
2026-02-23 00:41:52.880,0.0757,0.0068,1.0293,1.0321
2026-02-23 00:41:52.936,0.0869,0.0068,1.0244,1.0281
2026-02-23 00:41:52.989,0.0889,0.0093,1.0356,1.0395
2026-02-23 00:41:53.042,0.0825,0.0010,1.0298,1.0331
2026-02-23 00:41:53.095,0.0801,0.0063,1.0308,1.0339
2026-02-23 00:41:53.148,0.0811,0.0093,1.0303,1.0335
2026-02-23 00:41:53.201,0.0806,0.0059,1.0288,1.0320
2026-02-23 00:41:53.254,0.0825,0.0063,1.0317,1.0351
2026-02-23 00:41:53.307,0.0825,0.0063,1.0327,1.0360
2026-02-23 00:41:53.360,0.0840,0.0059,1.0278,1.0313
2026-02-23 00:41:53.413,0.0811,0.0078,1.0337,1.0369
2026-02-23 00:41:53.466,0.0801,0.0068,1.0259,1.0290
2026-02-23 00:41:53.519,0.0781,0.0010,1.0317,1.0347
2026-02-23 00:41:53.572,0.0820,0.0059,1.0273,1.0306
2026-02-23 00:41:53.625,0.0825,0.0059,1.0229,1.0263
2026-02-23 00:41:53.678,0.0806,0.0068,1.0283,1.0315
2026-02-23 00:41:53.732,0.0820,0.0000,1.0264,1.0296
2026-02-23 00:41:53.785,0.0825,0.0024,1.0317,1.0350
2026-02-23 00:41:53.838,0.0796,0.0054,1.0303,1.0334
2026-02-23 00:41:53.891,0.0801,0.0068,1.0347,1.0378
2026-02-23 00:41:53.944,0.0776,0.0015,1.0283,1.0312
2026-02-23 00:41:53.997,0.0835,0.0063,1.0249,1.0283
2026-02-23 00:41:54.050,0.0806,0.0039,1.0273,1.0305
2026-02-23 00:41:54.103,0.0830,0.0078,1.0244,1.0278
2026-02-23 00:41:54.156,0.0864,0.0063,1.0273,1.0310
2026-02-23 00:41:54.209,0.0820,0.0083,1.0283,1.0316
2026-02-23 00:41:54.262,0.0830,0.0068,1.0332,1.0366
2026-02-23 00:41:54.315,0.0811,0.0068,1.0278,1.0310
2026-02-23 00:41:54.368,0.0811,0.0024,1.0337,1.0369
2026-02-23 00:41:54.421,0.0806,0.0044,1.0327,1.0359
2026-02-23 00:41:54.475,0.0850,0.0039,1.0303,1.0338
2026-02-23 00:41:54.528,0.0815,0.0059,1.0342,1.0374
2026-02-23 00:41:54.581,0.0825,-0.1216,1.0322,1.0426
2026-02-23 00:41:54.634,0.0815,0.0049,1.0342,1.0374
2026-02-23 00:41:54.687,0.0845,0.0005,1.0293,1.0328
2026-02-23 00:41:54.740,0.0825,0.0078,1.0259,1.0292
2026-02-23 00:41:54.793,0.0820,0.0034,1.0337,1.0369
2026-02-23 00:41:54.846,0.0811,0.0024,1.0278,1.0310
2026-02-23 00:41:54.899,0.0811,0.0049,1.0269,1.0301
2026-02-23 00:41:54.952,0.0845,0.0054,1.0308,1.0342
2026-02-23 00:41:55.005,0.0815,0.0054,1.0317,1.0350
2026-02-23 00:41:55.058,0.0815,0.0044,1.0361,1.0393
2026-02-23 00:41:55.111,0.0820,0.0049,1.0356,1.0389
2026-02-23 00:41:55.164,0.0806,0.0024,1.0342,1.0373
2026-02-23 00:41:55.217,0.0815,0.0049,1.0361,1.0393
2026-02-23 00:41:55.270,0.0820,0.0049,1.0259,1.0292
2026-02-23 00:41:55.323,0.0830,0.0054,1.0278,1.0312
2026-02-23 00:41:55.376,0.0811,0.0049,1.0273,1.0305
2026-02-23 00:41:55.429,0.0815,0.0063,1.0308,1.0340
2026-02-23 00:41:55.482,0.0825,0.0068,1.0312,1.0346
2026-02-23 00:41:55.536,0.0825,0.0034,1.0337,1.0370
2026-02-23 00:41:55.589,0.0815,0.0078,1.0327,1.0360
2026-02-23 00:41:55.642,0.0815,0.0039,1.0293,1.0325
2026-02-23 00:41:55.695,0.0786,0.0068,1.0181,1.0211
2026-02-23 00:41:55.748,0.0815,0.0063,1.0264,1.0296
2026-02-23 00:41:55.801,0.0820,0.0039,1.0288,1.0321
2026-02-23 00:41:55.854,0.0806,0.0103,1.0229,1.0262
2026-02-23 00:41:55.907,0.0835,0.0039,1.0278,1.0312
2026-02-23 00:41:55.960,0.0791,0.0054,1.0283,1.0314
2026-02-23 00:41:56.013,0.0801,0.0059,1.0391,1.0422
2026-02-23 00:41:56.066,0.0845,0.0015,1.0254,1.0289
2026-02-23 00:41:56.119,0.0850,0.0024,1.0215,1.0250
2026-02-23 00:41:56.172,0.0850,0.0068,1.0347,1.0382
2026-02-23 00:41:56.225,0.0845,0.0049,1.0288,1.0323
2026-02-23 00:41:56.278,0.0806,0.0063,1.0347,1.0378
2026-02-23 00:41:56.332,0.0811,0.0068,1.0298,1.0330
2026-02-23 00:41:56.385,0.0791,0.0044,1.0220,1.0250
2026-02-23 00:41:56.438,0.0884,0.0044,1.0273,1.0311
2026-02-23 00:41:56.491,0.0811,0.0029,1.0283,1.0315
2026-02-23 00:41:56.544,0.0825,0.0044,1.0352,1.0384
2026-02-23 00:41:56.597,0.0815,0.0044,1.0308,1.0340
2026-02-23 00:41:56.650,0.0791,0.0059,1.0308,1.0338
2026-02-23 00:41:56.703,0.0820,0.0024,1.0254,1.0287
2026-02-23 00:41:56.756,0.0791,0.0073,1.0220,1.0251
2026-02-23 00:41:56.809,0.0830,0.0068,1.0264,1.0297
2026-02-23 00:41:56.862,0.0850,0.0078,1.0239,1.0275
2026-02-23 00:41:56.915,0.0757,0.0098,1.0278,1.0307
2026-02-23 00:41:56.968,0.0801,0.0068,1.0312,1.0344
2026-02-23 00:41:57.024,0.0806,0.0063,1.0337,1.0368
2026-02-23 00:41:57.080,0.0879,0.0034,1.0259,1.0296
2026-02-23 00:41:57.133,0.0781,0.0073,1.0317,1.0347
2026-02-23 00:41:57.186,0.0820,0.0044,1.0322,1.0355
2026-02-23 00:41:57.239,0.0776,0.0054,1.0308,1.0337
2026-02-23 00:41:57.292,0.0850,0.0044,1.0327,1.0362
2026-02-23 00:41:57.345,0.0850,0.0044,1.0303,1.0338
2026-02-23 00:41:57.398,0.0830,0.0039,1.0259,1.0292
2026-02-23 00:41:57.451,0.0825,0.0054,1.0308,1.0341
2026-02-23 00:41:57.504,0.0840,0.0044,1.0332,1.0366
2026-02-23 00:41:57.557,0.0791,0.0039,1.0264,1.0294
2026-02-23 00:41:57.612,0.0854,0.0068,1.0298,1.0333
2026-02-23 00:41:57.665,0.0840,0.0044,1.0288,1.0322
2026-02-23 00:41:57.718,0.0830,0.0068,1.0269,1.0302
2026-02-23 00:41:57.771,0.0796,0.0024,1.0249,1.0280
2026-02-23 00:41:57.824,0.0830,0.0107,1.0239,1.0273
2026-02-23 00:41:57.877,0.0825,0.0088,1.0278,1.0312
2026-02-23 00:41:57.931,0.0825,0.0068,1.0259,1.0292
2026-02-23 00:41:57.984,0.0801,0.0088,1.0298,1.0329
2026-02-23 00:41:58.037,0.0776,0.0068,1.0337,1.0366
2026-02-23 00:41:58.090,0.0840,0.0049,1.0278,1.0313
2026-02-23 00:41:58.144,0.0840,0.0078,1.0283,1.0318
2026-02-23 00:41:58.197,0.0811,0.0034,1.0312,1.0344
2026-02-23 00:41:58.250,0.0771,0.0063,1.0259,1.0288
2026-02-23 00:41:58.303,0.0825,0.0034,1.0254,1.0287
2026-02-23 00:41:58.356,0.0801,0.0088,1.0278,1.0310
2026-02-23 00:41:58.409,0.0830,0.0083,1.0273,1.0307
2026-02-23 00:41:58.462,0.0830,0.0020,1.0312,1.0346
2026-02-23 00:41:58.515,0.0811,0.0059,1.0283,1.0315
2026-02-23 00:41:58.568,0.0806,0.0020,1.0288,1.0320
2026-02-23 00:41:58.621,0.0767,0.0059,1.0322,1.0351
2026-02-23 00:41:58.674,0.0830,0.0054,1.0312,1.0346
2026-02-23 00:41:58.727,0.0776,0.0073,1.0269,1.0298
2026-02-23 00:41:58.781,0.0820,0.0068,1.0269,1.0301
2026-02-23 00:41:58.834,0.0801,0.0083,1.0303,1.0334
2026-02-23 00:41:58.887,0.0830,0.0044,1.0264,1.0297
2026-02-23 00:41:58.940,0.0830,0.0020,1.0273,1.0307
2026-02-23 00:41:58.993,0.0850,0.0054,1.0278,1.0314
2026-02-23 00:41:59.046,0.0835,0.0073,1.0205,1.0239
2026-02-23 00:41:59.100,0.0825,0.0078,1.0317,1.0351
2026-02-23 00:41:59.153,0.0752,0.0039,1.0366,1.0394
2026-02-23 00:41:59.206,0.0791,0.0029,1.0151,1.0182
2026-02-23 00:41:59.259,0.0830,0.0039,1.0259,1.0292
2026-02-23 00:41:59.313,0.0845,0.0063,1.0288,1.0323
2026-02-23 00:41:59.366,0.0884,0.0029,1.0298,1.0336
2026-02-23 00:41:59.419,0.0757,0.0015,1.0342,1.0369
2026-02-23 00:41:59.472,0.0811,0.0068,1.0303,1.0335
2026-02-23 00:41:59.525,0.0781,0.0093,1.0337,1.0367
2026-02-23 00:41:59.578,0.0840,0.0029,1.0327,1.0361
2026-02-23 00:41:59.631,0.0820,0.0044,1.0303,1.0335
2026-02-23 00:41:59.684,0.0845,0.0073,1.0273,1.0308
2026-02-23 00:41:59.737,0.0840,0.0049,1.0283,1.0318
2026-02-23 00:41:59.790,0.0776,0.0044,1.0391,1.0420
2026-02-23 00:41:59.843,0.0859,0.0015,1.0273,1.0309
2026-02-23 00:41:59.896,0.0845,0.0103,1.0293,1.0328
2026-02-23 00:41:59.949,0.0767,0.0083,1.0312,1.0341
2026-02-23 00:42:00.002,0.0825,0.0044,1.0234,1.0268
2026-02-23 00:42:00.055,0.0830,0.0073,1.0264,1.0297
2026-02-23 00:42:00.108,0.0850,0.0073,1.0239,1.0275
2026-02-23 00:42:00.162,0.0830,0.0049,1.0303,1.0336
2026-02-23 00:42:00.215,0.0850,0.0073,1.0308,1.0343
2026-02-23 00:42:00.268,0.0825,0.0059,1.0264,1.0297
2026-02-23 00:42:00.321,0.0801,0.0098,1.0303,1.0334
2026-02-23 00:42:00.374,0.0859,0.0029,1.0278,1.0314
2026-02-23 00:42:00.427,0.0815,0.0063,1.0337,1.0369
2026-02-23 00:42:00.480,0.0801,0.0088,1.0332,1.0363
2026-02-23 00:42:00.533,0.0801,0.0083,1.0327,1.0358
2026-02-23 00:42:00.586,0.0884,0.0034,1.0332,1.0370
2026-02-23 00:42:00.639,0.0801,0.0107,1.0273,1.0305
2026-02-23 00:42:00.692,0.0854,0.0063,1.0298,1.0333
2026-02-23 00:42:00.745,0.0835,0.0093,1.0298,1.0332
2026-02-23 00:42:00.798,0.0854,0.0063,1.0288,1.0324
2026-02-23 00:42:00.851,0.0825,0.0059,1.0229,1.0263
2026-02-23 00:42:00.905,0.0830,0.0068,1.0347,1.0380
2026-02-23 00:42:00.958,0.0820,0.0073,1.0278,1.0311
2026-02-23 00:42:01.011,0.0850,0.0078,1.0371,1.0406
2026-02-23 00:42:01.064,0.0786,0.0054,1.0293,1.0323
2026-02-23 00:42:01.117,0.0830,0.0049,1.0337,1.0370
2026-02-23 00:42:01.170,0.0791,0.0059,1.0322,1.0353
2026-02-23 00:42:01.223,0.0811,0.0010,1.0239,1.0271
2026-02-23 00:42:01.277,0.0825,0.0063,1.0264,1.0297
2026-02-23 00:42:01.330,0.0864,0.0112,1.0278,1.0315
2026-02-23 00:42:01.384,0.0889,0.0034,1.0278,1.0317
2026-02-23 00:42:01.437,0.0835,0.0059,1.0352,1.0385
2026-02-23 00:42:01.490,0.0815,0.0044,1.0288,1.0320
2026-02-23 00:42:01.543,0.0864,0.0083,1.0254,1.0291
2026-02-23 00:42:01.597,0.0850,0.0034,1.0234,1.0270
2026-02-23 00:42:01.650,0.0811,0.0020,1.0298,1.0330
2026-02-23 00:42:01.703,0.0820,0.0068,1.0361,1.0394
2026-02-23 00:42:01.756,0.0830,0.0073,1.0317,1.0351
2026-02-23 00:42:01.809,0.0781,0.0054,1.0283,1.0313
2026-02-23 00:42:01.862,0.0850,0.0054,1.0308,1.0343
2026-02-23 00:42:01.915,0.0815,0.0073,1.0278,1.0311
2026-02-23 00:42:01.970,0.0820,0.0044,1.0312,1.0345
2026-02-23 00:42:02.023,0.0850,0.0063,1.0327,1.0362
2026-02-23 00:42:02.076,0.0815,0.0005,1.0205,1.0238
2026-02-23 00:42:02.129,0.0825,0.0054,1.0259,1.0292
2026-02-23 00:42:02.182,0.0825,0.0054,1.0293,1.0326
2026-02-23 00:42:02.236,0.0835,0.0059,1.0327,1.0361
2026-02-23 00:42:02.289,0.0854,0.0093,1.0288,1.0324
2026-02-23 00:42:02.342,0.0796,0.0059,1.0220,1.0251
2026-02-23 00:42:02.396,0.0825,0.0063,1.0327,1.0360
2026-02-23 00:42:02.449,0.0796,0.0049,1.0366,1.0397
2026-02-23 00:42:02.502,0.0811,0.0068,1.0254,1.0286
2026-02-23 00:42:02.555,0.0820,0.0068,1.0347,1.0379
2026-02-23 00:42:02.609,0.0830,0.0098,1.0317,1.0351
2026-02-23 00:42:02.662,0.0806,0.0049,1.0317,1.0349
2026-02-23 00:42:02.715,0.0874,0.0044,1.0312,1.0350
2026-02-23 00:42:02.769,0.0806,0.0054,1.0298,1.0329
2026-02-23 00:42:02.822,0.0835,0.0083,1.0332,1.0366
2026-02-23 00:42:02.875,0.0815,0.0073,1.0264,1.0296
2026-02-23 00:42:02.928,0.0835,0.0063,1.0293,1.0327
2026-02-23 00:42:02.981,0.0806,0.0029,1.0259,1.0290
2026-02-23 00:42:03.035,0.0806,0.0078,1.0356,1.0388
2026-02-23 00:42:03.088,0.0762,0.0059,1.0254,1.0282
2026-02-23 00:42:03.141,0.0835,0.0083,1.0273,1.0308
2026-02-23 00:42:03.195,0.0781,0.0063,1.0322,1.0352
2026-02-23 00:42:03.249,0.0791,0.0024,1.0312,1.0343
2026-02-23 00:42:03.302,0.0854,0.0073,1.0298,1.0334
2026-02-23 00:42:03.356,0.0845,0.0083,1.0273,1.0308
2026-02-23 00:42:03.409,0.0820,0.0073,1.0337,1.0370
2026-02-23 00:42:03.462,0.0801,0.0044,1.0269,1.0300
2026-02-23 00:42:03.516,0.0791,0.0078,1.0332,1.0363
2026-02-23 00:42:03.569,0.0850,0.0063,1.0229,1.0265
2026-02-23 00:42:03.623,0.0781,0.0020,1.0283,1.0313
2026-02-23 00:42:03.676,0.0874,0.0083,1.0317,1.0355
2026-02-23 00:42:03.731,0.0825,0.0049,1.0181,1.0214
2026-02-23 00:42:03.784,0.0811,0.0068,1.0269,1.0301
2026-02-23 00:42:03.838,0.0820,0.0024,1.0347,1.0379
2026-02-23 00:42:03.891,0.0796,0.0054,1.0220,1.0251
2026-02-23 00:42:03.944,0.0796,0.0063,1.0303,1.0334
2026-02-23 00:42:03.998,0.0815,0.0078,1.0254,1.0287
2026-02-23 00:42:04.051,0.0801,0.0088,1.0327,1.0359
2026-02-23 00:42:04.105,0.0806,0.0059,1.0312,1.0344
2026-02-23 00:42:04.158,0.0796,0.0059,1.0303,1.0334
2026-02-23 00:42:04.212,0.0806,0.0068,1.0249,1.0281
2026-02-23 00:42:04.267,0.0791,0.0073,1.0229,1.0260
2026-02-23 00:42:04.320,0.0806,0.0098,1.0298,1.0330
2026-02-23 00:42:04.373,0.0815,0.0049,1.0308,1.0340
2026-02-23 00:42:04.426,0.0776,0.0073,1.0269,1.0298
2026-02-23 00:42:04.479,0.0845,0.0088,1.0254,1.0289
2026-02-23 00:42:04.532,0.0811,0.0078,1.0264,1.0296
2026-02-23 00:42:04.585,0.0815,0.0049,1.0317,1.0350
2026-02-23 00:42:04.638,0.0859,0.0083,1.0322,1.0358
2026-02-23 00:42:04.691,0.0811,0.0063,1.0312,1.0344
2026-02-23 00:42:04.744,0.0801,0.0078,1.0269,1.0300
2026-02-23 00:42:04.798,0.0806,0.0068,1.0278,1.0310
2026-02-23 00:42:04.851,0.0840,0.0054,1.0215,1.0249
2026-02-23 00:42:04.904,0.0840,0.0034,1.0283,1.0317
2026-02-23 00:42:04.957,0.0840,0.0093,1.0312,1.0347
2026-02-23 00:42:05.010,0.0786,0.0054,1.0244,1.0274
2026-02-23 00:42:05.063,0.0806,0.0029,1.0229,1.0261
2026-02-23 00:42:05.116,0.0845,0.0093,1.0278,1.0313
2026-02-23 00:42:05.169,0.0825,0.0088,1.0200,1.0234
2026-02-23 00:42:05.222,0.0825,0.0073,1.0347,1.0380
2026-02-23 00:42:05.275,0.0830,0.0034,1.0264,1.0297
2026-02-23 00:42:05.328,0.0830,0.0034,1.0317,1.0351
2026-02-23 00:42:05.382,0.0850,0.0044,1.0303,1.0338
2026-02-23 00:42:05.436,0.0825,0.0049,1.0254,1.0287
2026-02-23 00:42:05.490,0.0845,0.0000,1.0347,1.0381
2026-02-23 00:42:05.544,0.0884,0.0083,1.0278,1.0317
2026-02-23 00:42:05.597,0.0776,0.0049,1.0376,1.0405
2026-02-23 00:42:05.650,0.0806,0.0083,1.0264,1.0296
2026-02-23 00:42:05.703,0.0850,0.0034,1.0283,1.0318
2026-02-23 00:42:05.756,0.0820,0.0103,1.0376,1.0409
2026-02-23 00:42:05.809,0.0796,0.0078,1.0298,1.0329
2026-02-23 00:42:05.862,0.0820,0.0073,1.0288,1.0321
2026-02-23 00:42:05.915,0.0859,0.0063,1.0273,1.0310
2026-02-23 00:42:05.968,0.0854,0.0049,1.0273,1.0309
2026-02-23 00:42:06.022,0.0811,0.0020,1.0254,1.0286
2026-02-23 00:42:06.075,0.0850,0.0044,1.0312,1.0348
2026-02-23 00:42:06.128,0.0835,0.0024,1.0327,1.0361
2026-02-23 00:42:06.181,0.0815,0.0024,1.0317,1.0350
2026-02-23 00:42:06.234,0.0815,0.0049,1.0317,1.0350
2026-02-23 00:42:06.287,0.0811,0.0054,1.0269,1.0301
2026-02-23 00:42:06.340,0.0820,0.0107,1.0264,1.0297
2026-02-23 00:42:06.393,0.0820,0.0049,1.0259,1.0292
2026-02-23 00:42:06.446,0.0811,0.0068,1.0254,1.0286
2026-02-23 00:42:06.499,0.0850,0.0020,1.0273,1.0309
2026-02-23 00:42:06.552,0.0796,0.0078,1.0347,1.0378
2026-02-23 00:42:06.605,0.0835,0.0063,1.0220,1.0254
2026-02-23 00:42:06.658,0.0796,0.0039,1.0342,1.0372
2026-02-23 00:42:06.711,0.0806,0.0078,1.0273,1.0305
2026-02-23 00:42:06.765,0.0859,0.0029,1.0322,1.0358
2026-02-23 00:42:06.818,0.0820,0.0054,1.0322,1.0355
2026-02-23 00:42:06.871,0.0786,0.0044,1.0254,1.0284
2026-02-23 00:42:06.925,0.0791,0.0088,1.0283,1.0314
2026-02-23 00:42:06.978,0.0864,0.0059,1.0288,1.0324
2026-02-23 00:42:07.031,0.0815,0.0049,1.0317,1.0350
2026-02-23 00:42:07.084,0.0845,0.0059,1.0322,1.0357
2026-02-23 00:42:07.137,0.0854,0.0049,1.0342,1.0377
2026-02-23 00:42:07.190,0.0815,0.0068,1.0288,1.0321
2026-02-23 00:42:07.243,0.0781,0.0093,1.0288,1.0318
2026-02-23 00:42:07.296,0.0850,0.0063,1.0283,1.0318
2026-02-23 00:42:07.350,0.0801,0.0015,1.0332,1.0363
2026-02-23 00:42:07.403,0.0796,0.0088,1.0303,1.0334
2026-02-23 00:42:07.456,0.0835,0.0083,1.0259,1.0293
2026-02-23 00:42:07.509,0.0845,0.0063,1.0317,1.0352
2026-02-23 00:42:07.562,0.0791,0.0078,1.0322,1.0353
2026-02-23 00:42:07.615,0.0806,0.0049,1.0239,1.0271
2026-02-23 00:42:07.668,0.0820,0.0068,1.0322,1.0355
2026-02-23 00:42:07.721,0.0815,0.0093,1.0269,1.0301
2026-02-23 00:42:07.774,0.0796,0.0034,1.0337,1.0368
2026-02-23 00:42:07.827,0.0771,0.0073,1.0220,1.0249
2026-02-23 00:42:07.882,0.0806,0.0103,1.0298,1.0330
2026-02-23 00:42:07.935,0.0854,0.0059,1.0312,1.0348
2026-02-23 00:42:07.988,0.0869,0.0039,1.0303,1.0339
2026-02-23 00:42:08.042,0.0884,0.0078,1.0298,1.0336
2026-02-23 00:42:08.095,0.0815,0.0034,1.0283,1.0316
2026-02-23 00:42:08.148,0.0840,0.0039,1.0308,1.0342
2026-02-23 00:42:08.201,0.0830,0.0112,1.0283,1.0317
2026-02-23 00:42:08.254,0.0830,0.0059,1.0278,1.0312
2026-02-23 00:42:08.307,0.0796,0.0078,1.0303,1.0334
2026-02-23 00:42:08.360,0.0840,0.0049,1.0254,1.0288
2026-02-23 00:42:08.413,0.0854,0.0049,1.0225,1.0260
2026-02-23 00:42:08.466,0.0835,0.0039,1.0269,1.0303
2026-02-23 00:42:08.519,0.0825,0.0078,1.0352,1.0385
2026-02-23 00:42:08.572,0.0820,0.0073,1.0273,1.0306
2026-02-23 00:42:08.625,0.0835,0.0093,1.0283,1.0317
2026-02-23 00:42:08.679,0.0830,0.0020,1.0244,1.0278
2026-02-23 00:42:08.732,0.0815,0.0044,1.0298,1.0330
2026-02-23 00:42:08.785,0.0835,0.0083,1.0298,1.0332
2026-02-23 00:42:08.839,0.0796,0.0088,1.0312,1.0344
2026-02-23 00:42:08.892,0.0825,0.0059,1.0371,1.0404
2026-02-23 00:42:08.945,0.0815,0.0034,1.0239,1.0272
2026-02-23 00:42:08.999,0.0820,0.0088,1.0322,1.0355
2026-02-23 00:42:09.052,0.0801,0.0054,1.0303,1.0334
2026-02-23 00:42:09.105,0.0801,0.0073,1.0352,1.0383
2026-02-23 00:42:09.158,0.0806,0.0054,1.0332,1.0364
2026-02-23 00:42:09.212,0.0811,0.0049,1.0352,1.0383
2026-02-23 00:42:09.265,0.0850,0.0137,1.0303,1.0339
2026-02-23 00:42:09.318,0.0820,-0.1245,1.0317,1.0425
2026-02-23 00:42:09.371,0.0825,0.0015,1.0298,1.0331
2026-02-23 00:42:09.424,0.0845,0.0073,1.0234,1.0269
2026-02-23 00:42:09.478,0.0835,-0.1211,1.0269,1.0373
2026-02-23 00:42:09.531,0.0835,0.0015,1.0283,1.0317
2026-02-23 00:42:09.584,0.0830,0.0063,1.0317,1.0351
2026-02-23 00:42:09.638,0.0791,0.0093,1.0269,1.0299
2026-02-23 00:42:09.691,0.0820,0.0015,1.0327,1.0360
2026-02-23 00:42:09.744,0.0815,0.0039,1.0264,1.0296
2026-02-23 00:42:09.797,0.0825,0.0015,1.0249,1.0282
2026-02-23 00:42:09.850,0.0835,0.0054,1.0293,1.0327
2026-02-23 00:42:09.904,0.0889,0.0015,1.0264,1.0302
2026-02-23 00:42:09.957,0.0811,0.0034,1.0269,1.0301
2026-02-23 00:42:10.010,0.0811,0.0034,1.0293,1.0325
2026-02-23 00:42:10.063,0.0830,0.0107,1.0293,1.0327
2026-02-23 00:42:10.116,0.0806,0.0059,1.0371,1.0403
2026-02-23 00:42:10.169,0.0850,0.0093,1.0283,1.0319
2026-02-23 00:42:10.222,0.0854,0.0029,1.0327,1.0362
2026-02-23 00:42:10.275,0.0825,0.0063,1.0322,1.0355
2026-02-23 00:42:10.328,0.0811,0.0059,1.0254,1.0286
2026-02-23 00:42:10.383,0.0815,0.0059,1.0317,1.0350
2026-02-23 00:42:10.436,0.0869,0.0039,1.0386,1.0422
2026-02-23 00:42:10.489,0.0830,0.0054,1.0332,1.0365
2026-02-23 00:42:10.542,0.0850,0.0078,1.0264,1.0299
2026-02-23 00:42:10.595,0.0859,0.0063,1.0244,1.0280
2026-02-23 00:42:10.648,0.0791,0.0059,1.0342,1.0372
2026-02-23 00:42:10.701,0.0835,0.0068,1.0288,1.0322
2026-02-23 00:42:10.754,0.0835,0.0068,1.0317,1.0351
2026-02-23 00:42:10.807,0.0830,0.0049,1.0259,1.0292
2026-02-23 00:42:10.860,0.0859,0.0063,1.0293,1.0329
2026-02-23 00:42:10.913,0.0801,0.0049,1.0308,1.0339
2026-02-23 00:42:10.966,0.0791,0.0083,1.0283,1.0314
2026-02-23 00:42:11.020,0.0811,0.0044,1.0361,1.0393
2026-02-23 00:42:11.073,0.0845,-0.0005,1.0244,1.0279
2026-02-23 00:42:11.126,0.0825,0.0063,1.0293,1.0326
2026-02-23 00:42:11.179,0.0806,0.0068,1.0303,1.0334
2026-02-23 00:42:11.232,0.0850,0.0078,1.0264,1.0299
2026-02-23 00:42:11.285,0.0825,0.0049,1.0249,1.0282
2026-02-23 00:42:11.338,0.0801,0.0122,1.0312,1.0344
2026-02-23 00:42:11.391,0.0830,0.0015,1.0293,1.0326
2026-02-23 00:42:11.444,0.0830,0.0034,1.0288,1.0322
2026-02-23 00:42:11.497,0.0806,0.0063,1.0278,1.0310
2026-02-23 00:42:11.550,0.0825,0.0020,1.0229,1.0263
2026-02-23 00:42:11.603,0.0850,0.0044,1.0337,1.0372
2026-02-23 00:42:11.656,0.0825,0.0034,1.0273,1.0307
2026-02-23 00:42:11.709,0.0801,-0.0005,1.0342,1.0373
2026-02-23 00:42:11.762,0.0830,0.0024,1.0288,1.0322
2026-02-23 00:42:11.815,0.0850,0.0044,1.0327,1.0362
2026-02-23 00:42:11.869,0.0801,0.0063,1.0327,1.0358
2026-02-23 00:42:11.922,0.0786,0.0029,1.0244,1.0274
2026-02-23 00:42:11.975,0.0879,0.0073,1.0347,1.0384
2026-02-23 00:42:12.028,0.0830,0.0024,1.0234,1.0268
2026-02-23 00:42:12.081,0.0835,0.0029,1.0327,1.0361
2026-02-23 00:42:12.134,0.0796,0.0034,1.0225,1.0256
2026-02-23 00:42:12.187,0.0845,0.0063,1.0293,1.0328
2026-02-23 00:42:12.240,0.0815,0.0029,1.0298,1.0330
2026-02-23 00:42:12.293,0.0820,0.0078,1.0264,1.0297
2026-02-23 00:42:12.346,0.0830,0.0068,1.0312,1.0346
2026-02-23 00:42:12.399,0.0830,0.0093,1.0288,1.0322
2026-02-23 00:42:12.452,0.0845,0.0054,1.0259,1.0294
2026-02-23 00:42:12.505,0.0835,0.0054,1.0278,1.0312
2026-02-23 00:42:12.558,0.0771,0.0063,1.0229,1.0259
2026-02-23 00:42:12.611,0.0820,0.0024,1.0254,1.0287
2026-02-23 00:42:12.664,0.0801,0.0044,1.0283,1.0314
2026-02-23 00:42:12.717,0.0854,0.0005,1.0332,1.0367
2026-02-23 00:42:12.770,0.0850,0.0078,1.0386,1.0421
2026-02-23 00:42:12.823,0.0825,0.0049,1.0273,1.0307
2026-02-23 00:42:12.876,0.0796,0.0054,1.0283,1.0314
2026-02-23 00:42:12.930,0.0786,0.0044,1.0288,1.0318
2026-02-23 00:42:12.983,0.0806,0.0059,1.0303,1.0334
2026-02-23 00:42:13.036,0.0864,0.0039,1.0347,1.0383
2026-02-23 00:42:13.089,0.0830,0.0093,1.0283,1.0317
2026-02-23 00:42:13.142,0.0786,0.0088,1.0288,1.0318
2026-02-23 00:42:13.195,0.0830,0.0029,1.0215,1.0249
2026-02-23 00:42:13.248,0.0820,0.0039,1.0254,1.0287
2026-02-23 00:42:13.301,0.0869,0.0024,1.0273,1.0310
2026-02-23 00:42:13.354,0.0811,0.0029,1.0249,1.0281
2026-02-23 00:42:13.407,0.0850,0.0020,1.0269,1.0304
2026-02-23 00:42:13.460,0.0830,0.0034,1.0283,1.0317
2026-02-23 00:42:13.513,0.0771,0.0039,1.0332,1.0361
2026-02-23 00:42:13.567,0.0840,0.0049,1.0312,1.0347
2026-02-23 00:42:13.620,0.0835,0.0103,1.0312,1.0347
2026-02-23 00:42:13.673,0.0879,0.0063,1.0337,1.0374
2026-02-23 00:42:13.726,0.0820,0.0054,1.0312,1.0345
2026-02-23 00:42:13.779,0.0835,0.0034,1.0283,1.0317
2026-02-23 00:42:13.832,0.0811,0.0024,1.0288,1.0320
2026-02-23 00:42:13.885,0.0845,0.0083,1.0264,1.0299
2026-02-23 00:42:13.938,0.0796,0.0059,1.0293,1.0324
2026-02-23 00:42:13.991,0.0825,0.0059,1.0308,1.0341
2026-02-23 00:42:14.044,0.0776,0.0083,1.0303,1.0332
2026-02-23 00:42:14.097,0.0835,0.0049,1.0308,1.0341
2026-02-23 00:42:14.150,0.0806,0.0098,1.0342,1.0374
2026-02-23 00:42:14.203,0.0791,0.0103,1.0322,1.0353
2026-02-23 00:42:14.256,0.0806,0.0015,1.0288,1.0320
2026-02-23 00:42:14.309,0.0820,0.0078,1.0293,1.0326
2026-02-23 00:42:14.362,0.0815,0.0015,1.0210,1.0242
2026-02-23 00:42:14.415,0.0815,0.0059,1.0269,1.0301
2026-02-23 00:42:14.468,0.0835,0.0024,1.0283,1.0317
2026-02-23 00:42:14.521,0.0840,0.0078,1.0352,1.0386
2026-02-23 00:42:14.575,0.0845,0.0000,1.0273,1.0308
2026-02-23 00:42:14.628,0.0815,0.0063,1.0273,1.0306
2026-02-23 00:42:14.681,0.0811,0.0068,1.0254,1.0286
2026-02-23 00:42:14.734,0.0815,0.0020,1.0342,1.0374
2026-02-23 00:42:14.787,0.0796,0.0059,1.0308,1.0338
2026-02-23 00:42:14.840,0.0796,0.0044,1.0278,1.0309
2026-02-23 00:42:14.893,0.0835,0.0059,1.0244,1.0278
2026-02-23 00:42:14.946,0.0806,0.0044,1.0288,1.0320
2026-02-23 00:42:15.000,0.0801,0.0039,1.0312,1.0344
2026-02-23 00:42:15.053,0.0801,0.0034,1.0322,1.0353
2026-02-23 00:42:15.106,0.0825,0.0049,1.0308,1.0341
2026-02-23 00:42:15.159,0.0845,0.0054,1.0264,1.0299
2026-02-23 00:42:15.213,0.0845,0.0088,1.0361,1.0396
2026-02-23 00:42:15.266,0.0767,0.0039,1.0269,1.0297
2026-02-23 00:42:15.319,0.0796,0.0059,1.0288,1.0319
2026-02-23 00:42:15.372,0.0854,0.0015,1.0288,1.0324
2026-02-23 00:42:15.426,0.0845,0.0044,1.0254,1.0289
2026-02-23 00:42:15.479,0.0840,0.0059,1.0269,1.0303
2026-02-23 00:42:15.532,0.0815,0.0088,1.0259,1.0292
2026-02-23 00:42:15.586,0.0830,0.0059,1.0264,1.0297
2026-02-23 00:42:15.639,0.0850,0.0117,1.0269,1.0304
2026-02-23 00:42:15.692,0.0825,0.0049,1.0273,1.0307
2026-02-23 00:42:15.745,0.0806,0.0020,1.0239,1.0271
2026-02-23 00:42:15.798,0.0830,0.0054,1.0381,1.0414
2026-02-23 00:42:15.852,0.0840,0.0073,1.0308,1.0342
2026-02-23 00:42:15.905,0.0796,0.0029,1.0264,1.0295
2026-02-23 00:42:15.958,0.0806,0.0010,1.0298,1.0329
2026-02-23 00:42:16.011,0.0854,0.0059,1.0200,1.0236
2026-02-23 00:42:16.064,0.0815,0.0049,1.0342,1.0374
2026-02-23 00:42:16.117,0.0806,0.0083,1.0293,1.0325
2026-02-23 00:42:16.171,0.0791,0.0034,1.0259,1.0289
2026-02-23 00:42:16.224,0.0889,0.0122,1.0356,1.0395
2026-02-23 00:42:16.277,0.0767,0.0044,1.0278,1.0307
2026-02-23 00:42:16.330,0.0815,0.0039,1.0293,1.0325
2026-02-23 00:42:16.385,0.0815,0.0059,1.0322,1.0355
2026-02-23 00:42:16.438,0.0845,0.0054,1.0288,1.0323
2026-02-23 00:42:16.491,0.0830,0.0054,1.0312,1.0346
2026-02-23 00:42:16.544,0.0825,0.0010,1.0254,1.0287
2026-02-23 00:42:16.598,0.0811,0.0049,1.0244,1.0276
2026-02-23 00:42:16.651,0.0791,0.0078,1.0273,1.0304
2026-02-23 00:42:16.704,0.0830,0.0073,1.0298,1.0332
2026-02-23 00:42:16.757,0.0830,0.0059,1.0400,1.0434
2026-02-23 00:42:16.811,0.0786,0.0073,1.0244,1.0275
2026-02-23 00:42:16.864,0.0811,0.0083,1.0278,1.0311
2026-02-23 00:42:16.917,0.0801,0.0073,1.0225,1.0256
2026-02-23 00:42:16.970,0.0820,0.0039,1.0352,1.0384
2026-02-23 00:42:17.023,0.0806,0.0059,1.0312,1.0344
2026-02-23 00:42:17.077,0.0806,0.0039,1.0356,1.0388
2026-02-23 00:42:17.130,0.0820,-0.0029,1.0352,1.0384
2026-02-23 00:42:17.183,0.0786,0.0059,1.0259,1.0289
2026-02-23 00:42:17.236,0.0801,0.0039,1.0293,1.0324
2026-02-23 00:42:17.290,0.0796,0.0093,1.0239,1.0271
2026-02-23 00:42:17.343,0.0806,0.0068,1.0308,1.0339
2026-02-23 00:42:17.396,0.0845,0.0015,1.0312,1.0347
2026-02-23 00:42:17.449,0.0845,0.0015,1.0229,1.0264
2026-02-23 00:42:17.503,0.0820,0.0068,1.0273,1.0306
2026-02-23 00:42:17.556,0.0845,0.0034,1.0371,1.0405
2026-02-23 00:42:17.609,0.0820,0.0039,1.0327,1.0360
2026-02-23 00:42:17.663,0.0874,0.0088,1.0361,1.0398
2026-02-23 00:42:17.716,0.0830,0.0039,1.0298,1.0331
2026-02-23 00:42:17.769,0.0820,0.0068,1.0308,1.0340
2026-02-23 00:42:17.822,0.0796,0.0063,1.0303,1.0334
2026-02-23 00:42:17.875,0.0864,0.0049,1.0298,1.0334
2026-02-23 00:42:17.928,0.0986,0.0186,1.0225,1.0274
2026-02-23 00:42:17.982,0.0801,0.0010,1.0337,1.0368
2026-02-23 00:42:18.035,0.0752,0.0059,1.0391,1.0418
2026-02-23 00:42:18.088,0.0835,0.0088,1.0234,1.0269
2026-02-23 00:42:18.141,0.0811,0.0015,1.0308,1.0339
2026-02-23 00:42:18.195,0.0889,-0.0376,1.0430,1.0474
2026-02-23 00:42:18.248,0.0654,-0.1177,1.0107,1.0197
2026-02-23 00:42:18.301,0.1074,0.0200,1.0073,1.0132
2026-02-23 00:42:18.354,0.0728,-0.0151,1.0298,1.0325
2026-02-23 00:42:18.408,0.0986,0.0234,1.0273,1.0323
2026-02-23 00:42:18.461,0.0771,-0.0034,1.0288,1.0317
2026-02-23 00:42:18.514,0.0845,-0.0010,1.0337,1.0371
2026-02-23 00:42:18.567,0.0806,0.0107,1.0293,1.0325
2026-02-23 00:42:18.644,0.0562,0.0029,1.0293,1.0308
2026-02-23 00:42:18.697,0.0918,0.0063,1.0239,1.0281
2026-02-23 00:42:18.750,0.0776,0.0039,1.0264,1.0293
2026-02-23 00:42:18.803,0.0845,0.0107,1.0361,1.0396
2026-02-23 00:42:18.856,0.0825,-0.0015,1.0342,1.0375
2026-02-23 00:42:18.909,0.0854,0.0044,1.0312,1.0348
2026-02-23 00:42:18.962,0.0713,0.0210,1.0234,1.0261
2026-02-23 00:42:19.016,0.0796,0.0117,1.0308,1.0339
2026-02-23 00:42:19.069,0.0835,0.0063,1.0303,1.0337
2026-02-23 00:42:19.122,0.0820,0.0044,1.0327,1.0360
2026-02-23 00:42:19.175,0.0801,0.0024,1.0303,1.0334
2026-02-23 00:42:19.228,0.0796,0.0005,1.0312,1.0343
2026-02-23 00:42:19.281,0.0835,0.0015,1.0225,1.0259
2026-02-23 00:42:19.334,0.0820,0.0083,1.0308,1.0341
2026-02-23 00:42:19.387,0.0840,0.0049,1.0332,1.0366
2026-02-23 00:42:19.440,0.0840,0.0054,1.0298,1.0332
2026-02-23 00:42:19.493,0.0781,0.0073,1.0322,1.0352
2026-02-23 00:42:19.546,0.0825,0.0024,1.0288,1.0321
2026-02-23 00:42:19.599,0.0762,0.0034,1.0288,1.0316
2026-02-23 00:42:19.652,0.0874,0.0107,1.0239,1.0277
2026-02-23 00:42:19.706,0.0786,0.0049,1.0381,1.0411
2026-02-23 00:42:19.759,0.0869,0.0103,1.0337,1.0374
2026-02-23 00:42:19.812,0.0791,0.0083,1.0308,1.0338
2026-02-23 00:42:19.865,0.0864,0.0059,1.0239,1.0276
2026-02-23 00:42:19.918,0.0815,0.0044,1.0293,1.0325
2026-02-23 00:42:19.972,0.0830,0.0063,1.0317,1.0351
2026-02-23 00:42:20.025,0.0840,0.0073,1.0225,1.0259
2026-02-23 00:42:20.078,0.0840,0.0029,1.0308,1.0342
2026-02-23 00:42:20.131,0.0825,0.0054,1.0293,1.0326
2026-02-23 00:42:20.184,0.0874,0.0044,1.0254,1.0291
2026-02-23 00:42:20.237,0.0801,0.0054,1.0293,1.0324
2026-02-23 00:42:20.291,0.0864,0.0034,1.0269,1.0305
2026-02-23 00:42:20.344,0.0811,0.0068,1.0312,1.0345
2026-02-23 00:42:20.397,0.0811,0.0029,1.0273,1.0305
2026-02-23 00:42:20.450,0.0815,0.0059,1.0249,1.0282
2026-02-23 00:42:20.503,0.0869,0.0068,1.0298,1.0335
2026-02-23 00:42:20.556,0.0820,0.0049,1.0229,1.0262
2026-02-23 00:42:20.609,0.0825,0.0137,1.0366,1.0400
2026-02-23 00:42:20.662,0.0815,-0.1240,1.0195,1.0303
2026-02-23 00:42:20.715,0.0786,0.0044,1.0356,1.0386
2026-02-23 00:42:20.769,0.0767,0.0024,1.0220,1.0248
2026-02-23 00:42:20.822,0.0845,0.0044,1.0293,1.0328
2026-02-23 00:42:20.875,0.0835,0.0049,1.0293,1.0327
2026-02-23 00:42:20.928,0.0830,0.0107,1.0239,1.0273
2026-02-23 00:42:20.981,0.0806,0.0063,1.0327,1.0359
2026-02-23 00:42:21.034,0.0830,0.0063,1.0366,1.0400
2026-02-23 00:42:21.087,0.0835,0.0054,1.0288,1.0322
2026-02-23 00:42:21.140,0.0850,0.0078,1.0278,1.0314
2026-02-23 00:42:21.193,0.0840,0.0093,1.0332,1.0367
2026-02-23 00:42:21.246,0.0825,0.0029,1.0303,1.0336
2026-02-23 00:42:21.299,0.0820,0.0059,1.0312,1.0345
2026-02-23 00:42:21.352,0.0820,0.0034,1.0317,1.0350
2026-02-23 00:42:21.405,0.0806,0.0078,1.0293,1.0325
2026-02-23 00:42:21.458,0.0835,-0.1240,1.0308,1.0415
2026-02-23 00:42:21.512,0.0806,0.0078,1.0278,1.0310
2026-02-23 00:42:21.565,0.0820,0.0117,1.0288,1.0321
2026-02-23 00:42:21.618,0.0815,0.0020,1.0293,1.0325
2026-02-23 00:42:21.671,0.0830,0.0073,1.0273,1.0307
2026-02-23 00:42:21.724,0.0835,0.0044,1.0298,1.0332
2026-02-23 00:42:21.777,0.0845,0.0098,1.0317,1.0352
2026-02-23 00:42:21.830,0.0820,0.0063,1.0332,1.0365
2026-02-23 00:42:21.883,0.0767,0.0068,1.0264,1.0292
2026-02-23 00:42:21.937,0.0791,0.0063,1.0254,1.0285
2026-02-23 00:42:21.990,0.0850,0.0054,1.0269,1.0304
2026-02-23 00:42:22.043,0.0859,0.0073,1.0239,1.0276
2026-02-23 00:42:22.096,0.0840,0.0078,1.0371,1.0405
2026-02-23 00:42:22.149,0.0815,0.0010,1.0269,1.0301
2026-02-23 00:42:22.202,0.0835,0.0063,1.0327,1.0361
2026-02-23 00:42:22.255,0.0840,0.0020,1.0371,1.0405
2026-02-23 00:42:22.308,0.0825,0.0039,1.0327,1.0360
2026-02-23 00:42:22.361,0.0767,0.0068,1.0288,1.0317
2026-02-23 00:42:22.414,0.0854,0.0054,1.0283,1.0319
2026-02-23 00:42:22.467,0.0825,0.0029,1.0361,1.0394
2026-02-23 00:42:22.521,0.0786,0.0034,1.0308,1.0338
2026-02-23 00:42:22.574,0.0776,0.0083,1.0322,1.0352
2026-02-23 00:42:22.627,0.0820,0.0044,1.0190,1.0223
2026-02-23 00:42:22.680,0.0845,0.0078,1.0322,1.0357
2026-02-23 00:42:22.733,0.0835,0.0088,1.0278,1.0313
2026-02-23 00:42:22.786,0.0806,0.0054,1.0278,1.0310
2026-02-23 00:42:22.840,0.0781,0.0059,1.0303,1.0332
2026-02-23 00:42:22.893,0.0879,0.0044,1.0288,1.0326
2026-02-23 00:42:22.946,0.0825,0.0093,1.0312,1.0346
2026-02-23 00:42:22.999,0.0874,0.0044,1.0269,1.0306
2026-02-23 00:42:23.052,0.0796,0.0049,1.0347,1.0377
2026-02-23 00:42:23.105,0.0796,0.0049,1.0239,1.0270
2026-02-23 00:42:23.159,0.0840,0.0049,1.0269,1.0303
2026-02-23 00:42:23.212,0.0830,0.0039,1.0312,1.0346
2026-02-23 00:42:23.265,0.0884,0.0024,1.0278,1.0316
2026-02-23 00:42:23.318,0.0796,0.0093,1.0220,1.0251
2026-02-23 00:42:23.371,0.0815,0.0049,1.0322,1.0355
2026-02-23 00:42:23.424,0.0825,0.0063,1.0249,1.0282
2026-02-23 00:42:23.478,0.0835,0.0044,1.0298,1.0332
2026-02-23 00:42:23.531,0.0840,0.0044,1.0273,1.0308
2026-02-23 00:42:23.584,0.0869,0.0024,1.0288,1.0325
2026-02-23 00:42:23.637,0.0791,0.0054,1.0288,1.0319
2026-02-23 00:42:23.690,0.0898,0.0010,1.0312,1.0352
2026-02-23 00:42:23.744,0.0859,0.0054,1.0298,1.0334
2026-02-23 00:42:23.797,0.0796,0.0088,1.0303,1.0334
2026-02-23 00:42:23.850,0.0840,0.0020,1.0303,1.0337
2026-02-23 00:42:23.903,0.0830,0.0059,1.0283,1.0317
2026-02-23 00:42:23.957,0.0815,0.0059,1.0269,1.0301
2026-02-23 00:42:24.010,0.0835,0.0020,1.0283,1.0317
2026-02-23 00:42:24.063,0.0835,0.0059,1.0234,1.0269
2026-02-23 00:42:24.116,0.0820,0.0034,1.0283,1.0316
2026-02-23 00:42:24.170,0.0806,0.0093,1.0278,1.0310
2026-02-23 00:42:24.223,0.0825,0.0073,1.0361,1.0394
2026-02-23 00:42:24.276,0.0845,0.0059,1.0347,1.0381
2026-02-23 00:42:24.329,0.0864,0.0107,1.0220,1.0257
2026-02-23 00:42:24.383,0.0840,0.0083,1.0283,1.0318
2026-02-23 00:42:24.436,0.0840,0.0078,1.0288,1.0323
2026-02-23 00:42:24.489,0.0825,0.0034,1.0322,1.0355
2026-02-23 00:42:24.543,0.0796,0.0059,1.0352,1.0382
2026-02-23 00:42:24.596,0.0796,0.0054,1.0317,1.0348
2026-02-23 00:42:24.649,0.0806,0.0078,1.0269,1.0300
2026-02-23 00:42:24.702,0.0786,0.0010,1.0303,1.0333
2026-02-23 00:42:24.756,0.0825,0.0073,1.0249,1.0282
2026-02-23 00:42:24.809,0.0825,0.0068,1.0249,1.0282
2026-02-23 00:42:24.863,0.0815,0.0054,1.0298,1.0330
2026-02-23 00:42:24.916,0.0820,0.0034,1.0327,1.0360
2026-02-23 00:42:24.969,0.0835,0.0034,1.0332,1.0366
2026-02-23 00:42:25.022,0.0869,0.0010,1.0376,1.0412
2026-02-23 00:42:25.075,0.0757,0.0093,1.0283,1.0311
2026-02-23 00:42:25.128,0.0825,0.0029,1.0312,1.0346
2026-02-23 00:42:25.181,0.0791,0.0093,1.0229,1.0260
2026-02-23 00:42:25.234,0.0854,0.0049,1.0259,1.0294
2026-02-23 00:42:25.287,0.0776,0.0024,1.0298,1.0327
2026-02-23 00:42:25.340,0.0835,0.0044,1.0220,1.0254
2026-02-23 00:42:25.393,0.0845,0.0073,1.0396,1.0430
2026-02-23 00:42:25.446,0.0850,0.0122,1.0317,1.0353
2026-02-23 00:42:25.499,0.0874,0.0034,1.0371,1.0408
2026-02-23 00:42:25.552,0.0830,0.0049,1.0308,1.0341
2026-02-23 00:42:25.605,0.0854,0.0049,1.0332,1.0367
2026-02-23 00:42:25.658,0.0771,0.0029,1.0322,1.0351
2026-02-23 00:42:25.712,0.0859,0.0093,1.0273,1.0310
2026-02-23 00:42:25.765,0.0820,0.0010,1.0283,1.0316
2026-02-23 00:42:25.818,0.0845,0.0083,1.0303,1.0338
2026-02-23 00:42:25.871,0.0840,0.0073,1.0303,1.0337
2026-02-23 00:42:25.924,0.0771,0.0068,1.0283,1.0312
2026-02-23 00:42:25.977,0.0820,0.0083,1.0303,1.0336
2026-02-23 00:42:26.030,0.0820,0.0049,1.0249,1.0282
2026-02-23 00:42:26.083,0.0791,0.0049,1.0298,1.0328
2026-02-23 00:42:26.136,0.0840,0.0093,1.0283,1.0318
2026-02-23 00:42:26.189,0.0835,0.0078,1.0312,1.0347
2026-02-23 00:42:26.242,0.0811,0.0020,1.0293,1.0325
2026-02-23 00:42:26.295,0.0850,0.0063,1.0273,1.0309
2026-02-23 00:42:26.350,0.0840,0.0054,1.0273,1.0308
2026-02-23 00:42:26.403,0.0752,0.0059,1.0347,1.0374
2026-02-23 00:42:26.456,0.0796,0.0024,1.0322,1.0353
2026-02-23 00:42:26.509,0.0840,0.0068,1.0352,1.0386
2026-02-23 00:42:26.562,0.0801,0.0088,1.0327,1.0359
2026-02-23 00:42:26.615,0.0815,0.0073,1.0259,1.0291
2026-02-23 00:42:26.668,0.0830,0.0054,1.0283,1.0317
2026-02-23 00:42:26.721,0.0815,0.0103,1.0298,1.0331
2026-02-23 00:42:26.774,0.0840,0.0063,1.0303,1.0337
2026-02-23 00:42:26.827,0.0815,0.0039,1.0322,1.0354
2026-02-23 00:42:26.880,0.0806,0.0034,1.0312,1.0344
2026-02-23 00:42:26.933,0.0801,0.0044,1.0303,1.0334
2026-02-23 00:42:26.986,0.0791,0.0054,1.0303,1.0333
2026-02-23 00:42:27.039,0.0830,0.0073,1.0332,1.0366
2026-02-23 00:42:27.092,0.0811,0.0073,1.0239,1.0272
2026-02-23 00:42:27.145,0.0835,0.0078,1.0278,1.0312
2026-02-23 00:42:27.198,0.0840,0.0073,1.0273,1.0308
2026-02-23 00:42:27.251,0.0815,0.0068,1.0361,1.0394
2026-02-23 00:42:27.304,0.0830,0.0063,1.0259,1.0293
2026-02-23 00:42:27.357,0.0830,0.0063,1.0356,1.0390
2026-02-23 00:42:27.411,0.0820,0.0044,1.0244,1.0277
2026-02-23 00:42:27.464,0.0859,0.0059,1.0264,1.0300
2026-02-23 00:42:27.517,0.0854,0.0073,1.0322,1.0358
2026-02-23 00:42:27.570,0.0830,0.0015,1.0332,1.0365
2026-02-23 00:42:27.623,0.0840,0.0015,1.0312,1.0347
2026-02-23 00:42:27.676,0.0786,0.0024,1.0259,1.0289
2026-02-23 00:42:27.729,0.0874,0.0020,1.0244,1.0281
2026-02-23 00:42:27.782,0.0796,0.0049,1.0283,1.0314
2026-02-23 00:42:27.835,0.0884,0.0039,1.0303,1.0341
2026-02-23 00:42:27.888,0.0781,0.0063,1.0303,1.0333
2026-02-23 00:42:27.941,0.0835,0.0034,1.0361,1.0395
2026-02-23 00:42:27.994,0.0811,0.0068,1.0264,1.0296
2026-02-23 00:42:28.047,0.0801,0.0054,1.0327,1.0358
2026-02-23 00:42:28.100,0.0869,0.0088,1.0249,1.0286
2026-02-23 00:42:28.153,0.0850,0.0068,1.0312,1.0348
2026-02-23 00:42:28.206,0.0825,0.0059,1.0352,1.0385
2026-02-23 00:42:28.260,0.0845,0.0059,1.0308,1.0342
2026-02-23 00:42:28.313,0.0830,0.0068,1.0259,1.0293
2026-02-23 00:42:28.366,0.0874,0.0039,1.0293,1.0330
2026-02-23 00:42:28.419,0.0811,0.0078,1.0210,1.0242
2026-02-23 00:42:28.472,0.0879,0.0044,1.0327,1.0365
2026-02-23 00:42:28.525,0.0845,0.0049,1.0283,1.0318
2026-02-23 00:42:28.578,0.0815,0.0073,1.0234,1.0267
2026-02-23 00:42:28.631,0.0825,0.0068,1.0259,1.0292
2026-02-23 00:42:28.684,0.0791,0.0073,1.0293,1.0324
2026-02-23 00:42:28.737,0.0840,0.0088,1.0303,1.0337
2026-02-23 00:42:28.790,0.0835,0.0049,1.0332,1.0366
2026-02-23 00:42:28.843,0.0791,0.0093,1.0269,1.0299
2026-02-23 00:42:28.896,0.0835,0.0044,1.0273,1.0307
2026-02-23 00:42:28.949,0.0815,0.0034,1.0308,1.0340
2026-02-23 00:42:29.002,0.0835,0.0083,1.0298,1.0332
2026-02-23 00:42:29.055,0.0811,0.0059,1.0342,1.0374
2026-02-23 00:42:29.108,0.0835,0.0034,1.0342,1.0376
2026-02-23 00:42:29.161,0.0815,0.0044,1.0332,1.0364
2026-02-23 00:42:29.214,0.0825,0.0078,1.0215,1.0248
2026-02-23 00:42:29.267,0.0815,0.0049,1.0273,1.0306
2026-02-23 00:42:29.320,0.0825,0.0098,1.0288,1.0322
2026-02-23 00:42:29.373,0.0850,0.0049,1.0308,1.0343
2026-02-23 00:42:29.426,0.0781,0.0059,1.0220,1.0250
2026-02-23 00:42:29.479,0.0840,0.0063,1.0259,1.0293
2026-02-23 00:42:29.533,0.0815,0.0088,1.0322,1.0355
2026-02-23 00:42:29.586,0.0815,0.0044,1.0259,1.0291
2026-02-23 00:42:29.639,0.0840,0.0078,1.0288,1.0323
2026-02-23 00:42:29.692,0.0830,0.0088,1.0317,1.0351
2026-02-23 00:42:29.745,0.0791,0.0039,1.0220,1.0250
2026-02-23 00:42:29.798,0.0864,0.0054,1.0288,1.0324
2026-02-23 00:42:29.851,0.0835,0.0034,1.0288,1.0322
2026-02-23 00:42:29.904,0.0815,0.0044,1.0332,1.0364
2026-02-23 00:42:29.957,0.0801,0.0073,1.0273,1.0305
2026-02-23 00:42:30.010,0.0796,0.0078,1.0278,1.0309
2026-02-23 00:42:30.063,0.0859,0.0039,1.0278,1.0314
2026-02-23 00:42:30.117,0.0835,0.0088,1.0337,1.0371
2026-02-23 00:42:30.170,0.0840,0.0034,1.0293,1.0327
2026-02-23 00:42:30.224,0.0806,0.1226,1.0322,1.0426
2026-02-23 00:42:30.277,0.0820,0.0024,1.0239,1.0272
2026-02-23 00:42:30.331,0.0864,0.0029,1.0283,1.0319
2026-02-23 00:42:30.385,0.0806,0.0039,1.0317,1.0349
2026-02-23 00:42:30.438,0.0864,0.0015,1.0381,1.0417
2026-02-23 00:42:30.491,0.0815,0.0063,1.0220,1.0252
2026-02-23 00:42:30.544,0.0791,0.0024,1.0264,1.0294
2026-02-23 00:42:30.597,0.0796,0.0088,1.0308,1.0339
2026-02-23 00:42:30.651,0.0801,0.0068,1.0264,1.0295
2026-02-23 00:42:30.704,0.0820,0.0024,1.0234,1.0267
2026-02-23 00:42:30.757,0.0811,0.0059,1.0259,1.0291
2026-02-23 00:42:30.810,0.0811,0.1245,1.0220,1.0327
2026-02-23 00:42:30.863,0.0801,0.0059,1.0308,1.0339
2026-02-23 00:42:30.916,0.0820,0.0088,1.0317,1.0350
2026-02-23 00:42:30.970,0.0830,0.0063,1.0269,1.0302
2026-02-23 00:42:31.023,0.0845,0.0078,1.0303,1.0338
2026-02-23 00:42:31.076,0.0884,0.0049,1.0322,1.0360
2026-02-23 00:42:31.129,0.0820,0.0049,1.0308,1.0340
2026-02-23 00:42:31.183,0.0845,0.0073,1.0288,1.0323
2026-02-23 00:42:31.236,0.0864,0.0068,1.0283,1.0320
2026-02-23 00:42:31.289,0.0815,0.0049,1.0259,1.0291
2026-02-23 00:42:31.342,0.0835,0.0068,1.0303,1.0337
2026-02-23 00:42:31.395,0.0845,0.0063,1.0381,1.0415
2026-02-23 00:42:31.449,0.0786,0.0044,1.0293,1.0323
2026-02-23 00:42:31.502,0.0830,0.0073,1.0254,1.0288
2026-02-23 00:42:31.555,0.0820,0.0049,1.0288,1.0321
2026-02-23 00:42:31.609,0.0781,0.0039,1.0249,1.0279
2026-02-23 00:42:31.662,0.0806,0.0039,1.0234,1.0266
2026-02-23 00:42:31.715,0.0840,0.0044,1.0317,1.0352
2026-02-23 00:42:31.768,0.0801,0.0078,1.0376,1.0407
2026-02-23 00:42:31.822,0.0811,0.0024,1.0303,1.0335
2026-02-23 00:42:31.875,0.0786,0.0088,1.0308,1.0338
2026-02-23 00:42:31.929,0.0835,0.0068,1.0312,1.0346
2026-02-23 00:42:31.982,0.0830,0.0044,1.0269,1.0302
2026-02-23 00:42:32.035,0.0830,0.0049,1.0317,1.0351
2026-02-23 00:42:32.088,0.0801,0.0044,1.0303,1.0334
2026-02-23 00:42:32.142,0.0845,0.0083,1.0298,1.0333
2026-02-23 00:42:32.195,0.0830,0.0059,1.0366,1.0400
2026-02-23 00:42:32.248,0.0806,0.0068,1.0273,1.0305
2026-02-23 00:42:32.301,0.0820,0.0063,1.0303,1.0336
2026-02-23 00:42:32.355,0.0825,0.0054,1.0415,1.0448
2026-02-23 00:42:32.408,0.0811,0.0078,1.0264,1.0296
2026-02-23 00:42:32.461,0.0830,0.0068,1.0356,1.0390
